SubID	SessionDate	Trial	TargetColor	Response	Correct	RT	leftTargetLetter	rightTargetLetter	leftLetters	rightLetters	leftColors	rightColors	trainLength	TOA	Mask	SOA	Blocked	
09	23-Oct-2014	   1	Blue	b	0	0.3992	V	J	UMV	PQJ	bbr	rrb	3	2006	1	5	1
09	23-Oct-2014	   2	Blue	a	0	0.8469	U	J	MFU	AEJ	rbb	brr	3	2006	1	5	1
09	23-Oct-2014	   3	Blue	q	1	0.7122	Q	M	TRQ	UHM	bbb	rrr	3	2006	1	5	1
09	23-Oct-2014	   4	Blue	u	0	1.8844	O	Y	LEO	PWY	brb	rbr	3	647	1	5	1
09	23-Oct-2014	   5	Blue	s	1	0.9111	S	R	JTS	CYR	brb	rbr	3	647	1	5	1
09	23-Oct-2014	   6	Blue	w	0	1.5323	G	X	OPG	EWX	rrr	bbb	3	647	1	5	1
09	23-Oct-2014	   7	Blue	j	1	1.0279	N	J	FUN	DYJ	bbr	rrb	3	647	1	5	1
09	23-Oct-2014	   8	Blue	m	1	0.9724	M	L	OEM	HUL	rbb	brr	3	647	1	5	1
09	23-Oct-2014	   9	Blue	l	1	0.3288	K	L	QOK	NIL	brr	rbb	3	2006	1	5	1
09	23-Oct-2014	  10	Blue	y	1	1.0342	Y	K	JZY	EOK	bbb	rrr	3	647	1	5	1
09	23-Oct-2014	  11	Blue	s	1	0.7321	S	B	MHS	VXB	rbb	brr	3	2006	1	5	1
09	23-Oct-2014	  12	Blue	q	1	1.5838	X	Q	NTX	OBQ	rbr	brb	3	647	1	5	1
09	23-Oct-2014	  13	Blue	w	0	1.0712	N	T	FEN	PWT	bbr	rrb	3	2006	1	5	1
09	23-Oct-2014	  14	Blue	f	1	0.3439	S	F	IRS	LAF	bbr	rrb	3	2006	1	5	1
09	23-Oct-2014	  15	Blue	c	1	1.4961	C	U	VWC	ETU	bbb	rrr	3	647	1	5	1
09	23-Oct-2014	  16	Blue	y	1	0.3861	Y	M	UIY	VDM	rrb	bbr	3	2006	1	5	1
09	23-Oct-2014	   1	Red	q	1	1.9946	S	Q	YS	PQ	rb	br	2	647	1	5	1
09	23-Oct-2014	   2	Red	i	1	0.3610	G	I	PG	QI	bb	rr	2	2006	1	5	1
09	23-Oct-2014	   3	Red	i	1	0.2979	P	I	VP	KI	bb	rr	2	2006	1	5	1
09	23-Oct-2014	   4	Red	g	1	0.5002	T	G	OT	ZG	bb	rr	2	2006	1	5	1
09	23-Oct-2014	   5	Red	m	0	0.5432	I	W	BI	MW	bb	rr	2	2006	1	5	1
09	23-Oct-2014	   6	Red	g	1	0.7136	R	G	HR	SG	rb	br	2	2006	1	5	1
09	23-Oct-2014	   7	Red	w	0	1.3400	X	D	OX	FD	rr	bb	2	647	1	5	1
09	23-Oct-2014	   8	Red	m	0	1.6016	B	V	YB	OV	br	rb	2	647	1	5	1
09	23-Oct-2014	   9	Red	l	1	0.7742	Y	L	OY	CL	bb	rr	2	2006	1	5	1
09	23-Oct-2014	  10	Red	w	0	1.0229	M	H	SM	VH	bb	rr	2	647	1	5	1
09	23-Oct-2014	  11	Red	b	0	1.2230	J	M	FJ	PM	br	rb	2	647	1	5	1
09	23-Oct-2014	  12	Red	b	0	0.4089	Z	A	IZ	OA	br	rb	2	2006	1	5	1
09	23-Oct-2014	  13	Red	c	1	0.5510	N	C	XN	VC	rb	br	2	2006	1	5	1
09	23-Oct-2014	  14	Red	u	1	1.5192	P	U	HP	AU	bb	rr	2	647	1	5	1
09	23-Oct-2014	  15	Red	b	0	0.6778	J	K	WJ	ZK	rb	br	2	647	1	5	1
09	23-Oct-2014	  16	Red	y	1	1.0979	R	Y	PR	CY	rb	br	2	647	1	5	1
09	23-Oct-2014	   1	Blue	q	0	1.1549	V	N	PV	DN	rb	br	2	646	1	5	1
09	23-Oct-2014	   2	Blue	f	1	0.8132	X	F	PX	YF	rr	bb	2	646	1	5	1
09	23-Oct-2014	   3	Blue	h	1	0.5029	F	H	XF	OH	rr	bb	2	2006	1	5	1
09	23-Oct-2014	   4	Blue	w	0	1.2813	Q	C	UQ	TC	br	rb	2	646	1	5	1
09	23-Oct-2014	   5	Blue	q	0	1.3598	H	T	EH	WT	rb	br	2	646	1	5	1
09	23-Oct-2014	   6	Blue	h	1	1.1001	H	G	XH	FG	rb	br	2	646	1	5	1
09	23-Oct-2014	   7	Blue	b	0	1.4900	K	S	JK	YS	rb	br	2	646	1	5	1
09	23-Oct-2014	   8	Blue	c	1	1.5304	C	T	YC	MT	bb	rr	2	2006	1	5	1
09	23-Oct-2014	   9	Blue	w	0	0.2024	V	T	XV	DT	rr	bb	2	2006	1	5	1
09	23-Oct-2014	  10	Blue	b	0	0.6400	V	J	TV	OJ	rb	br	2	2006	1	5	1
09	23-Oct-2014	  11	Blue	u	1	0.3740	V	U	ZV	YU	rr	bb	2	2006	1	5	1
09	23-Oct-2014	  12	Blue	i	1	0.0064	W	I	UW	DI	rr	bb	2	2006	1	5	1
09	23-Oct-2014	  13	Blue	v	0	0.9793	C	N	BC	AN	rb	br	2	2006	1	5	1
09	23-Oct-2014	  14	Blue	w	0	0.5968	B	D	RB	SD	br	rb	2	2006	1	5	1
09	23-Oct-2014	  15	Blue	b	0	1.7086	B	M	CB	IM	br	rb	2	646	1	5	1
09	23-Oct-2014	  16	Blue	s	1	1.4683	D	S	VD	ES	rr	bb	2	646	1	5	1
09	23-Oct-2014	   1	Red	a	0	0.8768	E	D	E	D	r	b	1	2006	1	5	1
09	23-Oct-2014	   2	Red	b	0	0.0010	Z	Y	Z	Y	b	r	1	2006	1	5	1
09	23-Oct-2014	   3	Red	q	0	1.0438	W	M	W	M	r	b	1	647	1	5	1
09	23-Oct-2014	   4	Red	t	1	1.0264	T	O	T	O	r	b	1	647	1	5	1
09	23-Oct-2014	   5	Red	w	0	1.3373	R	O	R	O	b	r	1	647	1	5	1
09	23-Oct-2014	   6	Red	c	1	1.1325	F	C	F	C	b	r	1	647	1	5	1
09	23-Oct-2014	   7	Red	b	1	0.8960	B	U	B	U	r	b	1	647	1	5	1
09	23-Oct-2014	   8	Red	t	1	2.3242	T	S	T	S	r	b	1	2006	1	5	1
09	23-Oct-2014	   9	Red	k	1	1.1660	K	C	K	C	r	b	1	2006	1	5	1
09	23-Oct-2014	  10	Red	w	0	1.5285	X	H	X	H	b	r	1	647	1	5	1
09	23-Oct-2014	  11	Red	o	0	2.6137	J	M	J	M	b	r	1	2006	1	5	1
09	23-Oct-2014	  12	Red	u	0	1.0930	K	D	K	D	b	r	1	2006	1	5	1
09	23-Oct-2014	  13	Red	u	0	0.5226	V	H	V	H	r	b	1	2006	1	5	1
09	23-Oct-2014	  14	Red	o	0	2.1625	K	M	K	M	b	r	1	647	1	5	1
09	23-Oct-2014	  15	Red	t	1	0.9140	T	D	T	D	r	b	1	647	1	5	1
09	23-Oct-2014	  16	Red	q	1	0.3809	Q	R	Q	R	r	b	1	2006	1	5	1
09	23-Oct-2014	   1	Blue	b	0	8.5173	Q	I	Q	I	b	r	1	2006	1	5	1
09	23-Oct-2014	   2	Blue	l	1	0.7100	X	L	X	L	r	b	1	2006	1	5	1
09	23-Oct-2014	   3	Blue	j	0	1.5765	K	R	K	R	r	b	1	647	1	5	1
09	23-Oct-2014	   4	Blue	b	0	0.4527	V	J	V	J	r	b	1	2006	1	5	1
09	23-Oct-2014	   5	Blue	w	0	0.5999	B	R	B	R	r	b	1	2006	1	5	1
09	23-Oct-2014	   6	Blue	r	1	0.4067	R	U	R	U	b	r	1	2006	1	5	1
09	23-Oct-2014	   7	Blue	g	0	0.4755	Y	V	Y	V	r	b	1	2006	1	5	1
09	23-Oct-2014	   8	Blue	a	1	0.5736	A	L	A	L	b	r	1	2006	1	5	1
09	23-Oct-2014	   9	Blue	d	0	1.7235	A	S	A	S	b	r	1	647	1	5	1
09	23-Oct-2014	  10	Blue	j	1	1.4660	J	W	J	W	b	r	1	647	1	5	1
09	23-Oct-2014	  11	Blue	u	1	0.3463	R	U	R	U	r	b	1	2006	1	5	1
09	23-Oct-2014	  12	Blue	p	1	2.0090	G	P	G	P	r	b	1	647	1	5	1
09	23-Oct-2014	  13	Blue	b	0	1.3893	Q	V	Q	V	b	r	1	647	1	5	1
09	23-Oct-2014	  14	Blue	m	0	0.8393	J	F	J	F	b	r	1	647	1	5	1
09	23-Oct-2014	  15	Blue	r	1	0.7012	N	R	N	R	r	b	1	647	1	5	1
09	23-Oct-2014	  16	Blue	b	0	1.5428	O	X	O	X	b	r	1	647	1	5	1
09	23-Oct-2014	   1	Red	w	0	1.3535	R	Q	AGMR	SLNQ	rrrb	bbbr	4	647	1	5	1
09	23-Oct-2014	   2	Red	m	1	0.7677	T	M	DSHT	QZNM	rbrb	brbr	4	647	1	5	1
09	23-Oct-2014	   3	Red	j	1	0.7823	F	J	PTRF	LOKJ	brbb	rbrr	4	2006	1	5	1
09	23-Oct-2014	   4	Red	e	1	1.0413	T	E	PSBT	IKGE	bbbb	rrrr	4	647	1	5	1
09	23-Oct-2014	   5	Red	g	0	0.4853	I	B	RQNI	DSCB	rbbb	brrr	4	2006	1	5	1
09	23-Oct-2014	   6	Red	i	1	0.5568	I	Z	HQUI	ODXZ	bbbr	rrrb	4	2006	1	5	1
09	23-Oct-2014	   7	Red	m	0	0.8087	P	O	DWJP	LAZO	rrbb	bbrr	4	2006	1	5	1
09	23-Oct-2014	   8	Red	t	1	1.5391	T	I	LGQT	ACJI	rrbr	bbrb	4	647	1	5	1
09	23-Oct-2014	   9	Red	h	1	0.5568	K	H	ILGK	UDAH	brrb	rbbr	4	2006	1	5	1
09	23-Oct-2014	  10	Red	b	0	1.2634	A	Y	DCTA	SLGY	rbrb	brbr	4	647	1	5	1
09	23-Oct-2014	  11	Red	h	0	3.0341	L	E	RNWL	YSIE	rrrr	bbbb	4	647	1	5	1
09	23-Oct-2014	  12	Red	a	0	1.7662	D	U	YNGD	AZXU	rbbr	brrb	4	647	1	5	1
09	23-Oct-2014	  13	Red	a	1	0.0481	A	B	QXTA	HNRB	brbr	rbrb	4	2006	1	5	1
09	23-Oct-2014	  14	Red	r	1	0.6146	R	H	DLWR	IJEH	rbbr	brrb	4	2006	1	5	1
09	23-Oct-2014	  15	Red	v	0	2.1195	G	Y	UQJG	MSZY	rbbb	brrr	4	647	1	5	1
09	23-Oct-2014	  16	Red	b	1	1.6454	G	B	OZCG	DKVB	rbrb	brbr	4	2006	1	5	1
09	23-Oct-2014	   1	Blue	v	0	2.1846	Q	U	IWDQ	GLOU	brrb	rbbr	4	2006	1	5	1
09	23-Oct-2014	   2	Blue	q	0	1.0424	P	Z	RTWP	IVNZ	brrb	rbbr	4	647	1	5	1
09	23-Oct-2014	   3	Blue	w	0	1.2928	Z	Q	MWSZ	IABQ	bbbr	rrrb	4	647	1	5	1
09	23-Oct-2014	   4	Blue	g	0	1.1022	F	M	NEGF	TXUM	bbbr	rrrb	4	647	1	5	1
09	23-Oct-2014	   5	Blue	b	0	1.3278	E	L	MSCE	BUQL	rbrr	brbb	4	2006	1	5	1
09	23-Oct-2014	   6	Blue	h	1	1.6417	A	H	FXPA	CWUH	rbbr	brrb	4	2006	1	5	1
09	23-Oct-2014	   7	Blue	b	0	1.6147	E	V	XYUE	PZHV	rbrb	brbr	4	647	1	5	1
09	23-Oct-2014	   8	Blue	g	0	5.6449	W	B	NRCW	OAQB	rbrr	brbb	4	647	1	5	1
09	23-Oct-2014	   9	Blue	w	0	1.4232	K	M	BWGK	JRDM	bbrb	rrbr	4	2006	1	5	1
09	23-Oct-2014	  10	Blue	w	0	0.5260	P	G	FDSP	VRBG	brbr	rbrb	4	2006	1	5	1
09	23-Oct-2014	  11	Blue	y	0	1.4178	O	F	ZGBO	DQUF	bbrb	rrbr	4	647	1	5	1
09	23-Oct-2014	  12	Blue	t	0	4.0621	W	R	XKFW	ECQR	bbrr	rrbb	4	647	1	5	1
09	23-Oct-2014	  13	Blue	q	0	0.8163	O	N	GUKO	PMRN	brbr	rbrb	4	2006	1	5	1
09	23-Oct-2014	  14	Blue	b	0	1.3481	J	L	DPZJ	ROHL	rbrb	brbr	4	2006	1	5	1
09	23-Oct-2014	  15	Blue	g	0	2.0673	E	F	MOLE	QIKF	brbb	rbrr	4	647	1	5	1
09	23-Oct-2014	  16	Blue	a	1	0.3631	A	P	HVJA	WXNP	rrbb	bbrr	4	2006	1	5	1
09	23-Oct-2014	   1	Red	m	0	1.0498	B	F	ILBR	VEFD	bbr	rrb	3	2006	1	5	0
09	23-Oct-2014	   2	Red	m	0	1.6946	M	S	MONP	SXWG	b	r	1	2006	1	5	0
09	23-Oct-2014	   3	Red	v	0	1.3129	K	O	TSKN	FVOD	rrb	bbr	3	646	1	5	0
09	23-Oct-2014	   4	Red	e	0	1.9430	V	E	OVAX	PENF	rr	bb	2	646	1	5	0
09	23-Oct-2014	   5	Red	j	1	1.1357	V	J	QHVC	MBJI	rbb	brr	3	646	1	5	0
09	23-Oct-2014	   6	Red	a	1	1.9229	A	P	ABYV	PIDZ	r	b	1	646	1	5	0
09	23-Oct-2014	   7	Red	c	0	1.6942	S	R	PCOS	IMDR	rrbb	bbrr	4	646	1	5	0
09	23-Oct-2014	   8	Red	w	1	1.3180	R	W	DREI	VWKO	rb	br	2	646	1	5	0
09	23-Oct-2014	   9	Red	w	0	0.6441	H	U	HTKD	UNLR	r	b	1	2006	1	5	0
09	23-Oct-2014	  10	Red	m	0	1.4989	A	C	EKTA	RMHC	bbbb	rrrr	4	646	1	5	0
09	23-Oct-2014	  11	Red	b	0	1.1875	U	Y	KUCT	HYMQ	bb	rr	2	2006	1	5	0
09	23-Oct-2014	  12	Red	m	0	1.2263	L	N	WZML	AYSN	brrr	rbbb	4	2006	1	5	0
09	23-Oct-2014	  13	Red	s	0	1.2050	V	Y	IGVZ	REYS	brb	rbr	3	2006	1	5	0
09	23-Oct-2014	  14	Red	f	1	0.9119	F	K	MDFA	WVKL	brr	rbb	3	646	1	5	0
09	23-Oct-2014	  15	Red	w	0	1.5547	Q	C	QOTB	CEZD	b	r	1	646	1	5	0
09	23-Oct-2014	  16	Red	m	1	0.8439	R	M	QVXR	KGAM	rbrb	brbr	4	2006	1	5	0
09	23-Oct-2014	  17	Red	s	0	1.6533	O	M	ZNXO	TYQM	rbrr	brbb	4	646	1	5	0
09	23-Oct-2014	  18	Red	e	0	2.0062	T	P	TWMG	PCRI	b	r	1	2006	1	5	0
09	23-Oct-2014	  19	Red	e	0	2.8673	A	Y	AIKD	YNCB	r	b	1	646	1	5	0
09	23-Oct-2014	  20	Red	c	1	0.4291	C	T	NJCG	UATK	brr	rbb	3	2006	1	5	0
09	23-Oct-2014	  21	Red	w	0	2.6494	H	Q	VHXJ	IQCK	br	rb	2	646	1	5	0
09	23-Oct-2014	  22	Red	d	0	0.9606	V	B	DVJF	YBZR	rr	bb	2	2006	1	5	0
09	23-Oct-2014	  23	Red	l	1	0.4219	L	M	ONLT	XQMD	bbr	rrb	3	2006	1	5	0
09	23-Oct-2014	  24	Red	r	0	1.9174	N	O	EBSN	QUCO	brbr	rbrb	4	646	1	5	0
09	23-Oct-2014	  25	Red	b	0	1.2865	J	R	EJMX	ARBW	bb	rr	2	2006	1	5	0
09	23-Oct-2014	  26	Red	h	0	2.3806	T	I	TDWH	IJXK	b	r	1	2006	1	5	0
09	23-Oct-2014	  27	Red	w	0	1.5235	X	O	XQYM	OHFW	b	r	1	646	1	5	0
09	23-Oct-2014	  28	Red	o	0	1.8337	X	Z	HXOI	AZFB	rr	bb	2	646	1	5	0
09	23-Oct-2014	  29	Red	o	0	3.2381	V	J	QZVB	WPJH	rrr	bbb	3	646	1	5	0
09	23-Oct-2014	  30	Red	w	0	1.3097	R	A	QONR	LZIA	bbbr	rrrb	4	2006	1	5	0
09	23-Oct-2014	  31	Red	b	0	1.0205	L	F	WLIJ	KFRD	rr	bb	2	2006	1	5	0
09	23-Oct-2014	  32	Red	e	0	0.8482	Q	H	UJRQ	YZIH	bbbr	rrrb	4	2006	1	5	0
09	23-Oct-2014	   1	Blue	m	0	1.2363	P	W	PFJM	WSHB	r	b	1	647	1	5	0
09	23-Oct-2014	   2	Blue	w	0	1.0302	D	M	XKDW	JPML	rbr	brb	3	647	1	5	0
09	23-Oct-2014	   3	Blue	w	0	0.8559	J	U	XPJK	RCUI	brb	rbr	3	647	1	5	0
09	23-Oct-2014	   4	Blue	b	0	0.3115	K	H	SMKL	DEHQ	brr	rbb	3	2006	1	5	0
09	23-Oct-2014	   5	Blue	y	1	0.8127	Y	Q	CUJY	IAXQ	rbrb	brbr	4	2006	1	5	0
09	23-Oct-2014	   6	Blue	b	0	0.8088	E	V	WLKE	ZSRV	rrrr	bbbb	4	2006	1	5	0
09	23-Oct-2014	   7	Blue	w	1	1.1224	W	Z	KQSW	AFGZ	brbb	rbrr	4	647	1	5	0
09	23-Oct-2014	   8	Blue	u	0	2.3904	B	A	PBDG	XAIJ	br	rb	2	647	1	5	0
09	23-Oct-2014	   9	Blue	e	0	1.5442	F	U	CFTH	KUNA	rb	br	2	2006	1	5	0
09	23-Oct-2014	  10	Blue	a	0	1.2642	Y	J	XWEY	UONJ	rbbb	brrr	4	647	1	5	0
09	23-Oct-2014	  11	Blue	d	0	1.2405	L	C	MLZR	BCAQ	br	rb	2	647	1	5	0
09	23-Oct-2014	  12	Blue	w	0	1.1698	G	A	XGDE	HAWP	rr	bb	2	2006	1	5	0
09	23-Oct-2014	  13	Blue	n	0	1.7196	Q	O	PZHQ	ENXO	brrr	rbbb	4	647	1	5	0
09	23-Oct-2014	  14	Blue	e	0	0.7774	U	H	KOUI	NZHF	bbb	rrr	3	2006	1	5	0
09	23-Oct-2014	  15	Blue	h	1	1.7483	H	U	XAHZ	VGUI	rbb	brr	3	2006	1	5	0
09	23-Oct-2014	  16	Blue	k	0	2.1793	E	I	PEJS	VIHG	rr	bb	2	647	1	5	0
09	23-Oct-2014	  17	Blue	s	0	1.6920	L	Q	YLPU	AQIX	bb	rr	2	647	1	5	0
09	23-Oct-2014	  18	Blue	r	0	3.1476	F	X	FZOY	XLSB	b	r	1	647	1	5	0
09	23-Oct-2014	  19	Blue	q	0	1.5757	A	Z	ACUG	ZXBM	b	r	1	647	1	5	0
09	23-Oct-2014	  20	Blue	f	1	0.7715	Z	F	ZYDQ	FIRX	r	b	1	2006	1	5	0
09	23-Oct-2014	  21	Blue	f	0	4.0111	O	Z	OPGM	ZBFR	b	r	1	647	1	5	0
09	23-Oct-2014	  22	Blue	q	0	1.0182	C	F	CHIW	FPXV	r	b	1	2006	1	5	0
09	23-Oct-2014	  23	Blue	n	0	1.1795	T	A	RTFC	JANK	rb	br	2	2006	1	5	0
09	23-Oct-2014	  24	Blue	w	1	5.0392	W	C	YWHM	VCXE	bb	rr	2	2006	1	5	0
09	23-Oct-2014	  25	Blue	w	0	1.1177	X	C	UMXS	JLCF	bbb	rrr	3	2006	1	5	0
09	23-Oct-2014	  26	Blue	b	0	0.7348	J	Y	SWEJ	XVMY	rrrb	bbbr	4	2006	1	5	0
09	23-Oct-2014	  27	Blue	f	0	14.1699	G	F	WSGX	MQFO	rbb	brr	3	647	1	5	0
09	23-Oct-2014	  28	Blue	h	0	2.0218	Z	B	ZYJN	BLPX	b	r	1	2006	1	5	0
09	23-Oct-2014	  29	Blue	f	1	2.3862	F	I	FOVJ	IPXM	b	r	1	2006	1	5	0
09	23-Oct-2014	  30	Blue	v	0	0.9647	H	L	SGAH	ENPL	rbrb	brbr	4	647	1	5	0
09	23-Oct-2014	  31	Blue	a	0	1.0275	C	U	PZEC	ATXU	rrbb	bbrr	4	2006	1	5	0
09	23-Oct-2014	  32	Blue	a	0	2.0760	U	H	AYUR	XSHP	rrb	bbr	3	647	1	5	0
09	23-Oct-2014	   1	Red	c	0	1.0880	U	F	DULV	CFJO	br	rb	2	2005	1	5	0
09	23-Oct-2014	   2	Red	w	0	1.0862	C	A	UCRG	JASB	bb	rr	2	2005	1	5	0
09	23-Oct-2014	   3	Red	g	1	1.4122	G	Z	XGOU	HZWN	rr	bb	2	646	1	5	0
09	23-Oct-2014	   4	Red	w	0	1.3267	Q	H	KQCD	GHSM	br	rb	2	2005	1	5	0
09	23-Oct-2014	   5	Red	m	1	1.5163	M	D	MKRY	DBGQ	r	b	1	2005	1	5	0
09	23-Oct-2014	   6	Red	p	1	1.1942	P	E	PLNW	EAMZ	r	b	1	646	1	5	0
09	23-Oct-2014	   7	Red	b	0	1.6040	V	M	PVYS	XMFT	rb	br	2	646	1	5	0
09	23-Oct-2014	   8	Red	e	1	1.4160	E	X	KEWS	UXGY	rr	bb	2	646	1	5	0
09	23-Oct-2014	   9	Red	m	0	0.9832	G	D	IQJG	EZPD	bbrr	rrbb	4	2005	1	5	0
09	23-Oct-2014	  10	Red	y	0	1.7054	X	U	VYXB	ASUT	rrr	bbb	3	646	1	5	0
09	23-Oct-2014	  11	Red	f	0	0.5161	U	K	ICFU	TZSK	bbrr	rrbb	4	646	1	5	0
09	23-Oct-2014	  12	Red	v	0	2.1912	U	I	HYUT	OEIL	brb	rbr	3	646	1	5	0
09	23-Oct-2014	  13	Red	w	0	1.5996	E	X	ITEG	RNXK	brb	rbr	3	646	1	5	0
09	23-Oct-2014	  14	Red	u	0	1.7953	F	H	FWAG	HKYT	r	b	1	2005	1	5	0
09	23-Oct-2014	  15	Red	m	0	1.1383	P	N	BKPQ	TENM	rrr	bbb	3	2005	1	5	0
09	23-Oct-2014	  16	Red	y	1	0.7288	X	Y	RIXH	KPYC	brb	rbr	3	2005	1	5	0
09	23-Oct-2014	  17	Red	q	0	1.9273	M	X	ZPBM	AKDX	rrrr	bbbb	4	2005	1	5	0
09	23-Oct-2014	  18	Red	i	0	1.4750	Z	M	AHIZ	TJNM	rrbr	bbrb	4	646	1	5	0
09	23-Oct-2014	  19	Red	u	0	3.1785	A	Q	AWVR	QCJY	r	b	1	2005	1	5	0
09	23-Oct-2014	  20	Red	i	0	1.0791	B	J	RBTH	YJSE	rr	bb	2	2005	1	5	0
09	23-Oct-2014	  21	Red	k	0	5.8044	I	O	IJLB	ONAH	b	r	1	646	1	5	0
09	23-Oct-2014	  22	Red	u	0	0.9040	X	J	PIUX	FAEJ	brrr	rbbb	4	646	1	5	0
09	23-Oct-2014	  23	Red	k	0	5.1098	X	Q	GUFX	MIAQ	bbbr	rrrb	4	646	1	5	0
09	23-Oct-2014	  24	Red	m	0	5.2466	O	A	OREJ	AGUC	b	r	1	2005	1	5	0
09	23-Oct-2014	  25	Red	k	0	0.5655	K	J	PMKF	DQJX	brb	rbr	3	2005	1	5	0
09	23-Oct-2014	  26	Red	k	0	11.7906	Q	X	HNQT	VMXG	rbb	brr	3	646	1	5	0
09	23-Oct-2014	  27	Red	e	0	3.0646	M	W	BGMY	NIWU	brr	rbb	3	2005	1	5	0
09	23-Oct-2014	  28	Red	w	0	4.7840	Q	X	QUGW	XKRV	b	r	1	646	1	5	0
09	23-Oct-2014	  29	Red	n	0	3.4914	T	S	TKVM	SCBQ	b	r	1	646	1	5	0
09	23-Oct-2014	  30	Red	i	0	1.7932	K	I	TRDK	WHZI	bbrr	rrbb	4	2005	1	5	0
09	23-Oct-2014	  31	Red	w	0	0.8112	I	Z	AXMI	ONLZ	brrr	rbbb	4	2005	1	5	0
09	23-Oct-2014	  32	Red	q	0	1.3138	E	N	XEMG	LNFB	br	rb	2	646	1	5	0
09	23-Oct-2014	   1	Blue	n	0	1.2346	M	O	VUMP	TXOQ	rrb	bbr	3	2006	1	5	0
09	23-Oct-2014	   2	Blue	y	1	2.2743	Y	W	YJAM	WDVZ	b	r	1	2006	1	5	0
09	23-Oct-2014	   3	Blue	d	0	0.8238	B	K	VBWJ	QKNU	br	rb	2	2006	1	5	0
09	23-Oct-2014	   4	Blue	m	0	1.1055	I	Q	DCMI	TOEQ	brbr	rbrb	4	646	1	5	0
09	23-Oct-2014	   5	Blue	b	0	1.3110	W	G	QWAJ	ZGDM	rr	bb	2	2006	1	5	0
09	23-Oct-2014	   6	Blue	w	0	1.6600	V	R	VYLD	RAPF	b	r	1	646	1	5	0
09	23-Oct-2014	   7	Blue	r	0	1.3578	M	V	IMZQ	LVEN	br	rb	2	646	1	5	0
09	23-Oct-2014	   8	Blue	q	0	0.9747	G	K	EVJG	SRCK	rbrr	brbb	4	2006	1	5	0
09	23-Oct-2014	   9	Blue	y	0	4.4448	N	A	PEZN	BSUA	rbbr	brrb	4	2006	1	5	0
09	23-Oct-2014	  10	Blue	p	1	1.3742	L	P	TLYG	VPAZ	br	rb	2	2006	1	5	0
09	23-Oct-2014	  11	Blue	e	0	1.3960	R	O	NHXR	WCQO	bbbb	rrrr	4	646	1	5	0
09	23-Oct-2014	  12	Blue	e	0	1.5116	E	C	AEMZ	FCUN	rr	bb	2	2006	1	5	0
09	23-Oct-2014	  13	Blue	r	0	1.3870	D	W	OSLD	RPAW	rbrr	brbb	4	2006	1	5	0
09	23-Oct-2014	  14	Blue	e	0	1.3031	P	Y	CEPV	QUYH	rbb	brr	3	646	1	5	0
09	23-Oct-2014	  15	Blue	e	1	1.4295	M	E	CMZW	UEKA	rr	bb	2	646	1	5	0
09	23-Oct-2014	  16	Blue	a	0	2.1260	F	V	FLSU	VIAK	r	b	1	646	1	5	0
09	23-Oct-2014	  17	Blue	b	1	1.3047	D	B	ZFDS	IGBH	brr	rbb	3	646	1	5	0
09	23-Oct-2014	  18	Blue	p	1	1.6951	P	H	RPMX	THGJ	bb	rr	2	646	1	5	0
09	23-Oct-2014	  19	Blue	q	0	2.0793	A	L	ANDX	LZRI	r	b	1	646	1	5	0
09	23-Oct-2014	  20	Blue	e	0	1.6577	O	S	OCQM	SYWL	b	r	1	2006	1	5	0
09	23-Oct-2014	  21	Blue	w	0	0.8823	L	U	LWEQ	UHJS	r	b	1	2006	1	5	0
09	23-Oct-2014	  22	Blue	q	0	1.3195	Q	B	YQFW	XBIK	rr	bb	2	646	1	5	0
09	23-Oct-2014	  23	Blue	r	0	1.3353	Q	Y	SXAQ	VZRY	rrbr	bbrb	4	646	1	5	0
09	23-Oct-2014	  24	Blue	v	0	1.9093	R	Q	KCRG	TPQS	bbb	rrr	3	646	1	5	0
09	23-Oct-2014	  25	Blue	m	0	1.1632	G	Y	WHEG	MDRY	brrb	rbbr	4	2006	1	5	0
09	23-Oct-2014	  26	Blue	s	0	0.5686	F	W	ZUFN	JEWS	bbr	rrb	3	2006	1	5	0
09	23-Oct-2014	  27	Blue	r	0	1.2259	X	T	HEXF	CQTL	bbr	rrb	3	646	1	5	0
09	23-Oct-2014	  28	Blue	m	0	0.9570	C	B	RGCE	LABU	rbr	brb	3	2006	1	5	0
09	23-Oct-2014	  29	Blue	m	0	0.9220	K	C	UPKL	HDCA	brb	rbr	3	2006	1	5	0
09	23-Oct-2014	  30	Blue	w	0	1.6076	U	D	NBKU	EVID	bbrb	rrbr	4	646	1	5	0
09	23-Oct-2014	  31	Blue	k	0	1.4897	W	G	WNYR	GEPJ	r	b	1	646	1	5	0
09	23-Oct-2014	  32	Blue	m	0	1.0488	Y	Q	YIKH	QZAR	b	r	1	2006	1	5	0
09	29-Oct-2014	   1	Blue	w	0	1.0090	B	L	B	L	b	r	1	2006	1	4	1
09	29-Oct-2014	   2	Blue	d	1	0.5276	D	B	D	B	b	r	1	2006	1	4	1
09	29-Oct-2014	   3	Blue	w	0	0.0011	P	L	P	L	b	r	1	2006	1	4	1
09	29-Oct-2014	   4	Blue	b	0	0.8280	M	Z	M	Z	b	r	1	2006	1	4	1
09	29-Oct-2014	   5	Blue	t	0	1.3534	F	L	F	L	r	b	1	647	1	4	1
09	29-Oct-2014	   6	Blue	b	1	0.3092	B	T	B	T	b	r	1	2006	1	4	1
09	29-Oct-2014	   7	Blue	q	0	1.0213	F	Z	F	Z	b	r	1	2006	1	4	1
09	29-Oct-2014	   8	Blue	a	0	1.3798	K	J	K	J	b	r	1	647	1	4	1
09	29-Oct-2014	   9	Blue	x	1	0.3675	X	R	X	R	b	r	1	2006	1	4	1
09	29-Oct-2014	  10	Blue	i	1	1.1494	I	S	I	S	b	r	1	647	1	4	1
09	29-Oct-2014	  11	Blue	s	0	0.3763	T	F	T	F	r	b	1	2006	1	4	1
09	29-Oct-2014	  12	Blue	p	0	1.2453	G	P	G	P	b	r	1	647	1	4	1
09	29-Oct-2014	  13	Blue	l	1	0.7250	L	F	L	F	b	r	1	647	1	4	1
09	29-Oct-2014	  14	Blue	p	1	0.7019	I	P	I	P	r	b	1	647	1	4	1
09	29-Oct-2014	  15	Blue	q	0	1.0163	N	G	N	G	r	b	1	647	1	4	1
09	29-Oct-2014	  16	Blue	a	1	0.8561	B	A	B	A	r	b	1	647	1	4	1
09	29-Oct-2014	   1	Red	y	1	1.1841	Y	R	Y	R	r	b	1	2006	1	4	1
09	29-Oct-2014	   2	Red	q	1	0.9773	Q	B	Q	B	r	b	1	647	1	4	1
09	29-Oct-2014	   3	Red	d	0	0.5309	K	P	K	P	r	b	1	647	1	4	1
09	29-Oct-2014	   4	Red	i	1	0.5631	I	H	I	H	r	b	1	647	1	4	1
09	29-Oct-2014	   5	Red	d	1	0.8576	D	U	D	U	r	b	1	647	1	4	1
09	29-Oct-2014	   6	Red	c	1	1.2224	S	C	S	C	b	r	1	2006	1	4	1
09	29-Oct-2014	   7	Red	m	1	1.4870	M	G	M	G	r	b	1	2006	1	4	1
09	29-Oct-2014	   8	Red	s	1	0.3821	U	S	U	S	b	r	1	2006	1	4	1
09	29-Oct-2014	   9	Red	r	1	1.0596	D	R	D	R	b	r	1	647	1	4	1
09	29-Oct-2014	  10	Red	a	1	0.5373	F	A	F	A	b	r	1	2006	1	4	1
09	29-Oct-2014	  11	Red	r	1	0.5616	T	R	T	R	b	r	1	2006	1	4	1
09	29-Oct-2014	  12	Red	s	1	0.2974	W	S	W	S	b	r	1	2006	1	4	1
09	29-Oct-2014	  13	Red	a	0	0.8896	S	E	S	E	r	b	1	647	1	4	1
09	29-Oct-2014	  14	Red	s	1	0.3096	D	S	D	S	b	r	1	2006	1	4	1
09	29-Oct-2014	  15	Red	q	0	1.6686	P	W	P	W	b	r	1	647	1	4	1
09	29-Oct-2014	  16	Red	y	1	1.4692	Y	C	Y	C	r	b	1	647	1	4	1
09	29-Oct-2014	   1	Blue	w	1	0.5439	W	Q	JRXW	TASQ	rrrb	bbbr	4	2006	1	4	1
09	29-Oct-2014	   2	Blue	a	0	1.4340	Z	G	VNWZ	LJXG	rbbb	brrr	4	647	1	4	1
09	29-Oct-2014	   3	Blue	q	0	1.8554	V	I	SMTV	OAYI	brbr	rbrb	4	647	1	4	1
09	29-Oct-2014	   4	Blue	z	0	2.5168	N	Z	HJQN	WKMZ	rrrb	bbbr	4	647	1	4	1
09	29-Oct-2014	   5	Blue	r	0	0.5964	I	G	YTXI	LWVG	rrbr	bbrb	4	2006	1	4	1
09	29-Oct-2014	   6	Blue	z	1	0.7841	C	Z	MWXC	AGVZ	rrrr	bbbb	4	2006	1	4	1
09	29-Oct-2014	   7	Blue	y	1	0.8204	Y	Z	FRLY	CQWZ	brrb	rbbr	4	2006	1	4	1
09	29-Oct-2014	   8	Blue	j	1	0.4727	J	M	UASJ	YHNM	bbbb	rrrr	4	2006	1	4	1
09	29-Oct-2014	   9	Blue	h	1	0.7900	B	H	YEQB	TPVH	brrr	rbbb	4	647	1	4	1
09	29-Oct-2014	  10	Blue	r	0	1.0031	U	H	EGOU	RPIH	bbrb	rrbr	4	2006	1	4	1
09	29-Oct-2014	  11	Blue	z	1	0.4063	H	Z	TRUH	FGKZ	brrr	rbbb	4	647	1	4	1
09	29-Oct-2014	  12	Blue	z	1	0.4486	V	Z	CYMV	LHWZ	brrr	rbbb	4	2006	1	4	1
09	29-Oct-2014	  13	Blue	b	0	0.5295	V	N	RCMV	BSLN	rrbr	bbrb	4	2006	1	4	1
09	29-Oct-2014	  14	Blue	s	0	1.2369	W	X	NVJW	MFTX	rbbr	brrb	4	647	1	4	1
09	29-Oct-2014	  15	Blue	x	1	1.4795	Z	X	RFIZ	KJPX	bbbr	rrrb	4	647	1	4	1
09	29-Oct-2014	  16	Blue	m	1	1.4744	M	X	BHJM	RCQX	rbbb	brrr	4	647	1	4	1
09	29-Oct-2014	   1	Red	b	1	0.7931	V	B	RFKV	OMSB	brbb	rbrr	4	647	1	4	1
09	29-Oct-2014	   2	Red	r	1	0.5949	R	K	DPYR	TQMK	brrr	rbbb	4	647	1	4	1
09	29-Oct-2014	   3	Red	e	0	0.7816	V	E	KNSV	QADE	bbbr	rrrb	4	647	1	4	1
09	29-Oct-2014	   4	Red	c	0	0.1300	U	C	HKPU	TSIC	rrbr	bbrb	4	2006	1	4	1
09	29-Oct-2014	   5	Red	z	1	0.1657	P	Z	MWLP	VJUZ	bbrb	rrbr	4	2006	1	4	1
09	29-Oct-2014	   6	Red	m	0	1.5100	G	X	BFEG	SHAX	rbrb	brbr	4	647	1	4	1
09	29-Oct-2014	   7	Red	w	0	1.4662	F	E	JVMF	IPKE	brrr	rbbb	4	2006	1	4	1
09	29-Oct-2014	   8	Red	v	1	0.7733	K	V	LMCK	XWIV	brbb	rbrr	4	647	1	4	1
09	29-Oct-2014	   9	Red	b	0	1.0260	Z	N	KALZ	EBFN	bbrb	rrbr	4	2006	1	4	1
09	29-Oct-2014	  10	Red	c	1	2.5720	C	T	FQSC	GBJT	bbbr	rrrb	4	647	1	4	1
09	29-Oct-2014	  11	Red	c	1	1.4246	Q	C	ZYFQ	DLRC	bbrb	rrbr	4	647	1	4	1
09	29-Oct-2014	  12	Red	r	0	0.3829	S	G	FVLS	PRDG	bbbb	rrrr	4	2006	1	4	1
09	29-Oct-2014	  13	Red	r	0	0.7782	N	W	BUKN	XFTW	rbrr	brbb	4	2006	1	4	1
09	29-Oct-2014	  14	Red	e	1	0.7346	Y	E	UVRY	KTLE	bbrb	rrbr	4	2006	1	4	1
09	29-Oct-2014	  15	Red	t	0	1.2355	J	T	KDUJ	GMAT	bbrr	rrbb	4	647	1	4	1
09	29-Oct-2014	  16	Red	r	1	0.5049	R	Q	XKBR	VEPQ	brbr	rbrb	4	2006	1	4	1
09	29-Oct-2014	   1	BLue	p	1	0.5929	N	P	QIN	USP	bbr	rrb	3	2006	1	4	1
09	29-Oct-2014	   2	BLue	t	1	0.9939	U	T	KRU	MOT	rbr	brb	3	2006	1	4	1
09	29-Oct-2014	   3	BLue	m	0	1.7084	A	Z	BRA	LOZ	rrb	bbr	3	647	1	4	1
09	29-Oct-2014	   4	BLue	f	1	0.2948	F	G	YVF	ZUG	rrb	bbr	3	2006	1	4	1
09	29-Oct-2014	   5	BLue	w	0	0.4833	M	J	ASM	ETJ	bbb	rrr	3	2006	1	4	1
09	29-Oct-2014	   6	BLue	a	1	0.3766	L	A	RUL	DCA	rrr	bbb	3	2006	1	4	1
09	29-Oct-2014	   7	BLue	x	0	0.1939	O	H	QVO	PBH	bbb	rrr	3	2006	1	4	1
09	29-Oct-2014	   8	BLue	b	0	0.0485	M	C	NRM	JXC	rrb	bbr	3	2006	1	4	1
09	29-Oct-2014	   9	BLue	d	1	0.9005	D	P	QWD	NAP	brb	rbr	3	647	1	4	1
09	29-Oct-2014	  10	BLue	t	0	1.8737	V	N	GRV	BXN	brr	rbb	3	647	1	4	1
09	29-Oct-2014	  11	BLue	h	1	0.3420	H	W	KNH	TMW	rrb	bbr	3	2006	1	4	1
09	29-Oct-2014	  12	BLue	k	1	0.9275	K	I	ESK	BJI	rbb	brr	3	647	1	4	1
09	29-Oct-2014	  13	BLue	i	1	1.2993	I	A	ZFI	UJA	rrb	bbr	3	647	1	4	1
09	29-Oct-2014	  14	BLue	d	0	0.9152	M	T	NAM	EYT	rrb	bbr	3	647	1	4	1
09	29-Oct-2014	  15	BLue	b	0	1.0879	A	H	OUA	JLH	bbb	rrr	3	647	1	4	1
09	29-Oct-2014	  16	BLue	x	0	0.6392	O	F	KCO	UPF	rrb	bbr	3	647	1	4	1
09	29-Oct-2014	   1	Red	r	0	2.7382	Y	S	HEY	GQS	bbr	rrb	3	647	1	4	1
09	29-Oct-2014	   2	Red	y	1	0.4167	Y	N	PXY	LUN	rbr	brb	3	2006	1	4	1
09	29-Oct-2014	   3	Red	s	0	0.0011	G	D	ILG	KUD	brr	rbb	3	2006	1	4	1
09	29-Oct-2014	   4	Red	b	1	1.6385	T	B	ZKT	NQB	rrb	bbr	3	647	1	4	1
09	29-Oct-2014	   5	Red	x	0	0.0426	N	X	LEN	ARX	brr	rbb	3	2006	1	4	1
09	29-Oct-2014	   6	Red	z	1	0.7747	Z	H	AYZ	SPH	rrr	bbb	3	647	1	4	1
09	29-Oct-2014	   7	Red	j	1	0.4414	J	I	DXJ	AKI	bbr	rrb	3	2006	1	4	1
09	29-Oct-2014	   8	Red	b	0	0.8865	T	N	QXT	AHN	brb	rbr	3	647	1	4	1
09	29-Oct-2014	   9	Red	k	0	0.1582	H	B	AMH	WJB	rrb	bbr	3	2006	1	4	1
09	29-Oct-2014	  10	Red	i	1	0.3744	I	C	RVI	XFC	rbr	brb	3	2006	1	4	1
09	29-Oct-2014	  11	Red	v	1	0.9586	L	V	EJL	UPV	bbb	rrr	3	647	1	4	1
09	29-Oct-2014	  12	Red	f	1	0.3545	K	F	NOK	TVF	brb	rbr	3	2006	1	4	1
09	29-Oct-2014	  13	Red	e	1	0.5875	E	F	YTE	HWF	brr	rbb	3	647	1	4	1
09	29-Oct-2014	  14	Red	v	1	0.6438	V	B	YDV	SKB	rrr	bbb	3	647	1	4	1
09	29-Oct-2014	  15	Red	s	1	0.5464	G	S	HWG	BFS	rbb	brr	3	647	1	4	1
09	29-Oct-2014	  16	Red	f	1	0.3338	F	S	ZGF	NMS	rbr	brb	3	2006	1	4	1
09	29-Oct-2014	   1	Blue	c	1	0.8174	C	W	KC	SW	bb	rr	2	647	1	4	1
09	29-Oct-2014	   2	Blue	w	0	0.6237	A	H	NA	RH	br	rb	2	647	1	4	1
09	29-Oct-2014	   3	Blue	g	1	0.7424	X	G	BX	QG	rr	bb	2	647	1	4	1
09	29-Oct-2014	   4	Blue	o	0	3.5532	X	A	FX	PA	rb	br	2	2006	1	4	1
09	29-Oct-2014	   5	Blue	c	0	0.1615	Y	V	PY	BV	rr	bb	2	2006	1	4	1
09	29-Oct-2014	   6	Blue	w	0	0.2479	C	X	SC	WX	br	rb	2	647	1	4	1
09	29-Oct-2014	   7	Blue	g	1	0.5874	V	G	CV	SG	rr	bb	2	647	1	4	1
09	29-Oct-2014	   8	Blue	o	0	0.4344	C	H	OC	GH	rr	bb	2	647	1	4	1
09	29-Oct-2014	   9	Blue	b	0	5.5441	W	K	BW	GK	bb	rr	2	2006	1	4	1
09	29-Oct-2014	  10	Blue	d	0	0.7467	O	A	YO	PA	bb	rr	2	2006	1	4	1
09	29-Oct-2014	  11	Blue	s	0	0.5339	D	Y	QD	CY	rb	br	2	2006	1	4	1
09	29-Oct-2014	  12	Blue	w	0	0.9913	R	Y	TR	EY	bb	rr	2	647	1	4	1
09	29-Oct-2014	  13	Blue	d	0	0.2650	B	D	UB	XD	rb	br	2	2006	1	4	1
09	29-Oct-2014	  14	Blue	x	0	0.0441	K	W	XK	FW	bb	rr	2	2006	1	4	1
09	29-Oct-2014	  15	Blue	b	0	1.8070	N	T	ZN	UT	rb	br	2	647	1	4	1
09	29-Oct-2014	  16	Blue	j	1	0.6845	J	B	DJ	IB	rb	br	2	2006	1	4	1
09	29-Oct-2014	   1	Red	w	0	1.5407	N	T	FN	ZT	br	rb	2	646	1	4	1
09	29-Oct-2014	   2	Red	w	0	1.2594	E	P	WE	VP	br	rb	2	2006	1	4	1
09	29-Oct-2014	   3	Red	l	0	1.4202	V	N	UV	ZN	bb	rr	2	646	1	4	1
09	29-Oct-2014	   4	Red	l	1	0.4155	B	L	VB	AL	bb	rr	2	2006	1	4	1
09	29-Oct-2014	   5	Red	y	0	0.7576	E	F	IE	KF	bb	rr	2	2006	1	4	1
09	29-Oct-2014	   6	Red	d	0	0.4567	I	N	TI	UN	rb	br	2	2006	1	4	1
09	29-Oct-2014	   7	Red	a	0	0.4211	V	H	UV	LH	br	rb	2	2006	1	4	1
09	29-Oct-2014	   8	Red	o	0	0.1481	G	N	HG	UN	bb	rr	2	2006	1	4	1
09	29-Oct-2014	   9	Red	s	0	3.5696	H	J	PH	CJ	br	rb	2	646	1	4	1
09	29-Oct-2014	  10	Red	t	0	1.2255	G	E	ZG	UE	rr	bb	2	646	1	4	1
09	29-Oct-2014	  11	Red	j	1	0.4677	J	M	CJ	DM	br	rb	2	2006	1	4	1
09	29-Oct-2014	  12	Red	c	0	1.6077	O	D	AO	ED	rb	br	2	646	1	4	1
09	29-Oct-2014	  13	Red	l	1	0.7153	L	P	YL	MP	br	rb	2	646	1	4	1
09	29-Oct-2014	  14	Red	t	1	0.9419	B	T	QB	WT	bb	rr	2	646	1	4	1
09	29-Oct-2014	  15	Red	z	1	0.8642	P	Z	JP	QZ	bb	rr	2	646	1	4	1
09	29-Oct-2014	  16	Red	t	0	0.3430	G	V	SG	HV	br	rb	2	2006	1	4	1
09	29-Oct-2014	   1	Blue	z	0	1.0960	Q	Z	QLXD	ZAMR	b	r	1	647	1	4	0
09	29-Oct-2014	   2	Blue	a	1	0.9102	D	A	EYDX	NIAO	rrr	bbb	3	647	1	4	0
09	29-Oct-2014	   3	Blue	e	0	1.2201	R	K	PRYM	TKVQ	bb	rr	2	2006	1	4	0
09	29-Oct-2014	   4	Blue	w	0	1.4230	A	W	BSQA	OFGW	brrb	rbbr	4	647	1	4	0
09	29-Oct-2014	   5	Blue	s	1	1.3606	G	S	GFYM	SUTB	r	b	1	2006	1	4	0
09	29-Oct-2014	   6	Blue	x	1	1.0214	E	X	QEOV	TXJG	rr	bb	2	647	1	4	0
09	29-Oct-2014	   7	Blue	k	1	0.9822	U	K	IEUC	QAKW	rbr	brb	3	647	1	4	0
09	29-Oct-2014	   8	Blue	g	1	0.9138	S	G	BPSI	WJGC	brr	rbb	3	2006	1	4	0
09	29-Oct-2014	   9	Blue	b	0	2.3048	N	C	GZMN	DRVC	bbbr	rrrb	4	647	1	4	0
09	29-Oct-2014	  10	Blue	k	1	1.1944	N	K	NMZQ	KVRO	r	b	1	647	1	4	0
09	29-Oct-2014	  11	Blue	q	0	0.7132	U	D	QTEU	WLVD	rrrr	bbbb	4	2006	1	4	0
09	29-Oct-2014	  12	Blue	q	0	2.0671	M	K	MATF	KGIV	b	r	1	2006	1	4	0
09	29-Oct-2014	  13	Blue	s	1	1.0554	Y	S	WFYI	NKSL	rrr	bbb	3	647	1	4	0
09	29-Oct-2014	  14	Blue	m	0	0.8352	Z	Q	WVRZ	BPOQ	rrrb	bbbr	4	2006	1	4	0
09	29-Oct-2014	  15	Blue	m	0	1.9696	O	V	NOXB	SVYH	bb	rr	2	647	1	4	0
09	29-Oct-2014	  16	Blue	q	1	1.1790	H	Q	UYHL	MVQZ	rrr	bbb	3	2006	1	4	0
09	29-Oct-2014	  17	Blue	y	1	0.8008	Y	P	AWYI	FRPQ	rrb	bbr	3	2006	1	4	0
09	29-Oct-2014	  18	Blue	r	0	2.2267	K	F	PSIK	WHMF	brbb	rbrr	4	647	1	4	0
09	29-Oct-2014	  19	Blue	r	0	1.8001	D	E	DGYX	EVSK	r	b	1	2006	1	4	0
09	29-Oct-2014	  20	Blue	o	1	0.6601	P	O	PZRC	OBYE	r	b	1	2006	1	4	0
09	29-Oct-2014	  21	Blue	v	0	1.2112	W	H	SIGW	UDVH	bbbr	rrrb	4	647	1	4	0
09	29-Oct-2014	  22	Blue	i	1	1.2925	Z	I	EZUB	AIOV	rr	bb	2	647	1	4	0
09	29-Oct-2014	  23	Blue	c	0	1.2056	K	L	XGKE	RDLM	rbb	brr	3	2006	1	4	0
09	29-Oct-2014	  24	Blue	w	0	0.2910	Z	P	BTLZ	OAKP	rrrb	bbbr	4	2006	1	4	0
09	29-Oct-2014	  25	Blue	w	0	1.2612	F	H	NFTX	AHKM	rb	br	2	2006	1	4	0
09	29-Oct-2014	  26	Blue	c	0	1.2920	D	U	DTBE	UXZV	r	b	1	647	1	4	0
09	29-Oct-2014	  27	Blue	i	1	1.0434	L	I	HLEM	YIGP	rr	bb	2	2006	1	4	0
09	29-Oct-2014	  28	Blue	u	1	1.7800	O	U	VKOY	NGUW	rrr	bbb	3	647	1	4	0
09	29-Oct-2014	  29	Blue	i	1	1.6326	I	U	IOLH	UAMD	b	r	1	647	1	4	0
09	29-Oct-2014	  30	Blue	p	0	1.4045	Y	X	DYEB	HXWL	rr	bb	2	647	1	4	0
09	29-Oct-2014	  31	Blue	s	0	0.6985	K	W	ENDK	GQVW	rrrb	bbbr	4	2006	1	4	0
09	29-Oct-2014	  32	Blue	t	0	1.4069	G	Q	DGRT	WQBY	bb	rr	2	2006	1	4	0
09	29-Oct-2014	   1	Red	i	1	0.6221	M	I	MDKE	IONP	b	r	1	2006	1	4	0
09	29-Oct-2014	   2	Red	t	0	2.6142	Y	W	OICY	XTKW	rrrb	bbbr	4	647	1	4	0
09	29-Oct-2014	   3	Red	h	1	0.7764	W	H	JWCV	IHLM	bb	rr	2	2006	1	4	0
09	29-Oct-2014	   4	Red	r	0	2.2819	B	K	QNBE	ORKZ	rrb	bbr	3	647	1	4	0
09	29-Oct-2014	   5	Red	a	1	0.8724	Q	A	VRJQ	SXNA	rbbb	brrr	4	647	1	4	0
09	29-Oct-2014	   6	Red	r	0	2.4063	Z	N	EZVJ	MNUA	rb	br	2	2006	1	4	0
09	29-Oct-2014	   7	Red	x	0	1.1185	K	Q	IFKB	REQS	rrr	bbb	3	647	1	4	0
09	29-Oct-2014	   8	Red	j	1	0.5228	E	J	EZOT	JISR	b	r	1	2006	1	4	0
09	29-Oct-2014	   9	Red	i	0	1.2435	H	F	HTZD	FWIY	r	b	1	647	1	4	0
09	29-Oct-2014	  10	Red	w	0	1.8590	U	L	IUPY	ELXA	rb	br	2	647	1	4	0
09	29-Oct-2014	  11	Red	q	0	0.9861	I	K	LXJI	HMOK	bbbr	rrrb	4	2006	1	4	0
09	29-Oct-2014	  12	Red	l	1	1.1167	Z	L	FYZQ	WALP	bbb	rrr	3	647	1	4	0
09	29-Oct-2014	  13	Red	t	1	1.2407	E	T	EPHM	TKAX	b	r	1	647	1	4	0
09	29-Oct-2014	  14	Red	l	1	0.9684	S	L	STHN	LREV	b	r	1	647	1	4	0
09	29-Oct-2014	  15	Red	f	1	1.0368	I	F	UXIG	OLFY	rrb	bbr	3	2006	1	4	0
09	29-Oct-2014	  16	Red	w	0	0.9360	L	G	IYSL	MKEG	rbrr	brbb	4	2006	1	4	0
09	29-Oct-2014	  17	Red	y	1	1.0902	V	Y	VEZT	YOBU	b	r	1	647	1	4	0
09	29-Oct-2014	  18	Red	w	0	2.4190	Q	U	HEQW	PYUG	rrb	bbr	3	2006	1	4	0
09	29-Oct-2014	  19	Red	s	0	1.5549	X	D	TXFL	GDCJ	br	rb	2	2006	1	4	0
09	29-Oct-2014	  20	Red	d	0	1.5354	Q	H	QZFP	HERO	r	b	1	2006	1	4	0
09	29-Oct-2014	  21	Red	a	0	0.5771	K	Q	CMUK	PVGQ	bbbr	rrrb	4	2006	1	4	0
09	29-Oct-2014	  22	Red	q	1	1.0993	J	Q	MUJD	HEQX	rrb	bbr	3	2006	1	4	0
09	29-Oct-2014	  23	Red	e	0	1.9205	F	E	KFBD	REHZ	br	rb	2	647	1	4	0
09	29-Oct-2014	  24	Red	i	1	0.9070	P	I	LPDC	HITR	bb	rr	2	2006	1	4	0
09	29-Oct-2014	  25	Red	b	1	1.0784	B	R	KBLW	SREV	rr	bb	2	647	1	4	0
09	29-Oct-2014	  26	Red	t	0	3.0624	W	P	KTHW	IUNP	rbbb	brrr	4	647	1	4	0
09	29-Oct-2014	  27	Red	t	0	1.0813	S	L	AMBS	NTWL	rbbr	brrb	4	647	1	4	0
09	29-Oct-2014	  28	Red	m	0	1.2471	P	O	EPUM	QORL	br	rb	2	647	1	4	0
09	29-Oct-2014	  29	Red	v	1	1.0042	O	V	FQLO	ZINV	rbrb	brbr	4	2006	1	4	0
09	29-Oct-2014	  30	Red	a	0	0.9276	M	Z	AKMY	FHZW	brr	rbb	3	2006	1	4	0
09	29-Oct-2014	  31	Red	i	1	0.5637	B	I	WVBH	ULIA	bbb	rrr	3	647	1	4	0
09	29-Oct-2014	  32	Red	r	0	1.8431	Z	A	ZCQT	AOVU	r	b	1	2006	1	4	0
09	29-Oct-2014	   1	Blue	l	0	0.8318	U	N	AFCU	BZPN	rrrb	bbbr	4	647	1	4	0
09	29-Oct-2014	   2	Blue	b	0	0.9508	K	M	IKSW	UMAT	br	rb	2	2006	1	4	0
09	29-Oct-2014	   3	Blue	l	1	0.6671	M	L	DMBO	RLHK	br	rb	2	2006	1	4	0
09	29-Oct-2014	   4	Blue	p	1	2.7584	P	B	PIKQ	BRJU	b	r	1	647	1	4	0
09	29-Oct-2014	   5	Blue	u	0	1.0130	F	G	LUZF	OXWG	rrrr	bbbb	4	647	1	4	0
09	29-Oct-2014	   6	Blue	u	0	1.0678	L	Y	LSPB	YHVT	r	b	1	2006	1	4	0
09	29-Oct-2014	   7	Blue	a	1	0.7300	I	A	IXQU	AFEM	r	b	1	2006	1	4	0
09	29-Oct-2014	   8	Blue	t	0	1.4847	J	V	XJPK	MVHR	rr	bb	2	647	1	4	0
09	29-Oct-2014	   9	Blue	b	0	0.7531	W	V	SDTW	GUBV	brbb	rbrr	4	2006	1	4	0
09	29-Oct-2014	  10	Blue	b	0	1.2934	O	D	XUSO	KQVD	rbrb	brbr	4	647	1	4	0
09	29-Oct-2014	  11	Blue	p	1	0.8608	D	P	FQDW	RIPC	rrr	bbb	3	647	1	4	0
09	29-Oct-2014	  12	Blue	o	1	0.2866	I	O	EUHI	YLXO	rbbr	brrb	4	2006	1	4	0
09	29-Oct-2014	  13	Blue	a	0	0.5411	Q	D	EHWQ	AYUD	rrbb	bbrr	4	2006	1	4	0
09	29-Oct-2014	  14	Blue	o	1	1.3601	E	O	XBEW	TYOH	rrr	bbb	3	2006	1	4	0
09	29-Oct-2014	  15	Blue	c	1	1.2353	F	C	FENW	CLXO	r	b	1	647	1	4	0
09	29-Oct-2014	  16	Blue	f	1	1.3547	W	F	WADM	FRZH	r	b	1	647	1	4	0
09	29-Oct-2014	  17	Blue	q	0	0.9916	P	A	XQPI	DMAG	rbr	brb	3	647	1	4	0
09	29-Oct-2014	  18	Blue	a	0	0.6516	U	S	YBUK	VJSH	rrr	bbb	3	2006	1	4	0
09	29-Oct-2014	  19	Blue	w	1	1.0477	D	W	DVFC	WAGT	r	b	1	647	1	4	0
09	29-Oct-2014	  20	Blue	o	0	0.6089	S	Z	DBSG	JUZF	bbr	rrb	3	2006	1	4	0
09	29-Oct-2014	  21	Blue	t	0	1.5685	W	C	EKWS	YXCV	brr	rbb	3	647	1	4	0
09	29-Oct-2014	  22	Blue	r	0	1.8139	S	X	VSON	HXDC	rr	bb	2	647	1	4	0
09	29-Oct-2014	  23	Blue	r	1	0.6551	T	R	ZFET	KAYR	rbbr	brrb	4	2006	1	4	0
09	29-Oct-2014	  24	Blue	t	0	1.2045	C	T	SCDA	VTFM	rb	br	2	2006	1	4	0
09	29-Oct-2014	  25	Blue	n	0	0.9286	R	E	GIRZ	OFEP	rrb	bbr	3	2006	1	4	0
09	29-Oct-2014	  26	Blue	w	0	1.5479	X	E	CXWV	JEYR	rr	bb	2	647	1	4	0
09	29-Oct-2014	  27	Blue	b	0	1.2678	W	J	VFHW	AZUJ	rrbr	bbrb	4	647	1	4	0
09	29-Oct-2014	  28	Blue	s	0	1.1963	O	H	LOYB	WHFR	bb	rr	2	647	1	4	0
09	29-Oct-2014	  29	Blue	y	0	1.1509	D	Y	PGDL	VHYO	brb	rbr	3	647	1	4	0
09	29-Oct-2014	  30	Blue	s	1	1.8904	W	S	WNBG	SVOA	r	b	1	2006	1	4	0
09	29-Oct-2014	  31	Blue	w	0	1.8769	E	J	CENU	RJQA	rb	br	2	2006	1	4	0
09	29-Oct-2014	  32	Blue	a	0	0.6466	V	I	VSOE	IKBZ	b	r	1	2006	1	4	0
09	29-Oct-2014	   1	Red	l	0	1.1022	W	M	DWIF	NMOJ	rr	bb	2	647	1	4	0
09	29-Oct-2014	   2	Red	k	0	1.0847	B	Y	PLHB	GASY	rbrr	brbb	4	647	1	4	0
09	29-Oct-2014	   3	Red	q	0	1.1545	J	W	XJYE	HWIU	br	rb	2	647	1	4	0
09	29-Oct-2014	   4	Red	a	0	0.3709	N	X	TCBN	GWAX	brbr	rbrb	4	2006	1	4	0
09	29-Oct-2014	   5	Red	s	0	1.0247	F	E	FORA	EVIN	r	b	1	647	1	4	0
09	29-Oct-2014	   6	Red	f	1	1.0242	T	F	WTCJ	BFIS	bb	rr	2	647	1	4	0
09	29-Oct-2014	   7	Red	w	0	0.9645	C	X	KASC	DJVX	bbrr	rrbb	4	2006	1	4	0
09	29-Oct-2014	   8	Red	u	1	1.0728	S	U	IMSP	TRUQ	bbb	rrr	3	2006	1	4	0
09	29-Oct-2014	   9	Red	l	0	0.9525	J	L	ZAJB	PELR	bbr	rrb	3	647	1	4	0
09	29-Oct-2014	  10	Red	b	0	0.9656	A	I	LMQA	SOCI	brrr	rbbb	4	647	1	4	0
09	29-Oct-2014	  11	Red	v	0	0.9507	S	V	SKHJ	VQNW	r	b	1	2006	1	4	0
09	29-Oct-2014	  12	Red	v	1	1.0008	C	V	CHAF	VMUJ	b	r	1	2006	1	4	0
09	29-Oct-2014	  13	Red	m	0	1.5248	V	U	IYGV	MPHU	bbbr	rrrb	4	647	1	4	0
09	29-Oct-2014	  14	Red	a	0	1.3304	V	M	VTSO	MBXC	r	b	1	2006	1	4	0
09	29-Oct-2014	  15	Red	x	0	1.4312	S	I	GSPX	BICF	rr	bb	2	647	1	4	0
09	29-Oct-2014	  16	Red	p	0	1.9358	P	M	PUQT	MJLG	b	r	1	647	1	4	0
09	29-Oct-2014	  17	Red	i	0	3.3456	J	O	YJEQ	LOGM	rr	bb	2	2006	1	4	0
09	29-Oct-2014	  18	Red	p	1	0.8101	P	V	ROPA	MGVH	rrr	bbb	3	2006	1	4	0
09	29-Oct-2014	  19	Red	s	0	1.8270	E	M	BIEG	FQMO	brb	rbr	3	647	1	4	0
09	29-Oct-2014	  20	Red	g	0	1.0920	U	H	BCZU	VRNH	brrb	rbbr	4	2006	1	4	0
09	29-Oct-2014	  21	Red	p	0	1.5799	E	D	PRYE	UNFD	brbr	rbrb	4	647	1	4	0
09	29-Oct-2014	  22	Red	d	0	2.6828	B	F	GIBS	RPFO	brr	rbb	3	2006	1	4	0
09	29-Oct-2014	  23	Red	v	1	0.7942	R	V	ARZF	MVHS	bb	rr	2	2006	1	4	0
09	29-Oct-2014	  24	Red	s	0	1.3551	O	Q	KOMI	NQJR	br	rb	2	2006	1	4	0
09	29-Oct-2014	  25	Red	r	0	2.3606	O	G	FWOA	QPGR	rrb	bbr	3	647	1	4	0
09	29-Oct-2014	  26	Red	d	0	1.9209	R	H	RCEI	HBYG	r	b	1	647	1	4	0
09	29-Oct-2014	  27	Red	v	1	0.9365	U	V	UTLA	VWIK	b	r	1	2006	1	4	0
09	29-Oct-2014	  28	Red	t	0	2.4608	N	W	KLNE	DQWF	rbb	brr	3	647	1	4	0
09	29-Oct-2014	  29	Red	s	0	0.6841	P	D	TPGK	MDEN	bb	rr	2	2006	1	4	0
09	29-Oct-2014	  30	Red	t	0	1.8544	Q	S	QKHC	SFEY	r	b	1	647	1	4	0
09	29-Oct-2014	  31	Red	x	0	0.9262	S	A	PUXS	GHDA	brrb	rbbr	4	2006	1	4	0
09	29-Oct-2014	  32	Red	s	0	0.3719	B	M	FGBQ	VKMZ	brb	rbr	3	2006	1	4	0
