SubID	SessionDate	Trial	TargetColor	Response	Correct	RT	leftTargetLetter	rightTargetLetter	leftLetters	rightLetters	leftColors	rightColors	trainLength	TOA	Mask	SOA	symbols1	5-Feb-16	1	Red	h	1	1.3636	H	K	YHOQ	LKEX	rr	bb	2	2000	1	6	01	5-Feb-16	2	Red	w	1	1.1286	W	M	RWOS	KMVL	rr	bb	2	650	1	6	01	5-Feb-16	3	Red	t	0	1.63	W	Z	QTBW	VHYZ	rrbb	bbrr	4	650	1	6	01	5-Feb-16	4	Red	q	1	1.0415	Q	E	NQVX	JEFT	rr	bb	2	650	1	6	01	5-Feb-16	5	Red	e	1	0.7845	A	E	JATM	UECZ	bb	rr	2	2000	1	6	01	5-Feb-16	6	Red	j	1	0.8871	J	C	YOKJ	MLHC	brbr	rbrb	4	2000	1	6	01	5-Feb-16	7	Red	d	1	1.716	G	D	RCGZ	ONDF	bbb	rrr	3	650	1	6	01	5-Feb-16	8	Red	h	1	1.6757	F	H	EFIG	RHNO	bb	rr	2	650	1	6	01	5-Feb-16	9	Red	y	1	1.0517	Y	S	YKCW	SLRF	r	b	1	2000	1	6	01	5-Feb-16	10	Red	v	1	0.8677	J	V	TJRK	AVQS	bb	rr	2	2000	1	6	01	5-Feb-16	11	Red	l	1	1.5293	L	T	LJUS	TWPA	r	b	1	650	1	6	01	5-Feb-16	12	Red	u	1	2.03	U	O	UZKP	OBJM	r	b	1	650	1	6	01	5-Feb-16	13	Red	o	1	4.5524	O	E	FVKO	LDIE	bbrr	rrbb	4	2000	1	6	01	5-Feb-16	14	Red	e	0	3.1906	B	L	OTBR	MELD	rbb	brr	3	650	1	6	01	5-Feb-16	15	Red	d	1	0.9481	D	F	YNDR	QWFX	brr	rbb	3	2000	1	6	01	5-Feb-16	16	Red	j	0	1.9436	O	X	AJOL	DHXV	rrr	bbb	3	650	1	6	01	5-Feb-16	17	Red	m	1	1.0984	X	M	JTEX	RLDM	rrbb	bbrr	4	650	1	6	01	5-Feb-16	18	Red	e	1	2.2322	C	E	CUHA	EFSG	b	r	1	650	1	6	01	5-Feb-16	19	Red	c	1	1.1435	J	C	SAJX	RVCY	brb	rbr	3	2000	1	6	01	5-Feb-16	20	Red	i	1	0.8738	X	I	XHOU	ILJY	b	r	1	2000	1	6	01	5-Feb-16	21	Red	z	0	2.0639	Y	Z	ESYV	MDZG	rbr	brb	3	650	1	6	01	5-Feb-16	22	Red	g	1	3.0361	G	S	GIVW	SDCT	r	b	1	650	1	6	01	5-Feb-16	23	Red	b	0	1.3737	X	K	BXYG	LKNT	rb	br	2	650	1	6	01	5-Feb-16	24	Red	s	1	1.3958	X	S	AHRX	KEBS	bbrb	rrbr	4	650	1	6	01	5-Feb-16	25	Red	r	1	1.2327	M	R	YHIM	SZUR	rbrb	brbr	4	650	1	6	01	5-Feb-16	26	Red	h	0	0.8598	V	N	XFVP	CHNT	bbr	rrb	3	2000	1	6	01	5-Feb-16	27	Red	p	0	0.9268	C	E	ZTPC	SWQE	rrrb	bbbr	4	2000	1	6	01	5-Feb-16	28	Red	a	1	1.2578	A	I	HAOX	UIKC	br	rb	2	2000	1	6	01	5-Feb-16	29	Red	c	1	1.1324	C	I	QACP	STIV	rrr	bbb	3	2000	1	6	01	5-Feb-16	30	Red	d	1	1.072	H	D	HGXQ	DFEO	b	r	1	2000	1	6	01	5-Feb-16	31	Red	n	1	1.5404	S	N	SZKT	NOHL	b	r	1	2000	1	6	01	5-Feb-16	32	Red	l	0	0.5341	P	U	WHTP	LKGU	bbrb	rrbr	4	2000	1	6	01	5-Feb-16	1	Blue	s	0	1.6269	C	I	ASRC	OQMI	bbrr	rrbb	4	650	1	6	01	5-Feb-16	2	Blue	v	0	2.1097	E	C	GVEY	RKCN	bbr	rrb	3	650	1	6	01	5-Feb-16	3	Blue	k	0	0.9658	M	I	UFVM	KDQI	rbrr	brbb	4	2000	1	6	01	5-Feb-16	4	Blue	l	0	1.2322	C	S	HLCJ	OTSI	bbr	rrb	3	650	1	6	01	5-Feb-16	5	Blue	q	0	2.7837	D	E	DCOU	EGSV	b	r	1	2000	1	6	01	5-Feb-16	6	Blue	p	1	1.2779	B	P	ECBR	UHPK	brr	rbb	3	2000	1	6	01	5-Feb-16	7	Blue	r	0	3.1798	U	G	UARM	GZTF	r	b	1	2000	1	6	01	5-Feb-16	8	Blue	r	0	1.3845	J	O	XJMF	ROAC	rb	br	2	650	1	6	01	5-Feb-16	9	Blue	b	1	1.4349	B	Y	BWCA	YKSU	b	r	1	2000	1	6	01	5-Feb-16	10	Blue	u	0	1.2398	P	R	HQCP	KDUR	brrb	rbbr	4	650	1	6	01	5-Feb-16	11	Blue	p	0	1.2745	I	J	KWPI	XNQJ	brbb	rbrr	4	650	1	6	01	5-Feb-16	12	Blue	e	1	2.6907	E	O	DEBC	YOTG	rb	br	2	2000	1	6	01	5-Feb-16	13	Blue	u	0	1.5869	R	A	QEUR	ITYA	bbbr	rrrb	4	650	1	6	01	5-Feb-16	14	Blue	x	1	2.2535	N	X	NLYU	XPZK	r	b	1	650	1	6	01	5-Feb-16	15	Blue	u	1	1.9064	U	Y	UASJ	YHNM	b	r	1	650	1	6	01	5-Feb-16	16	Blue	r	1	1.0908	R	H	XRMK	CHNV	bb	rr	2	2000	1	6	01	5-Feb-16	17	Blue	k	0	1.294	R	Y	EJPR	BKNY	rrrb	bbbr	4	2000	1	6	01	5-Feb-16	18	Blue	d	0	5.6289	N	R	DNWO	CRIG	br	rb	2	2000	1	6	01	5-Feb-16	19	Blue	l	0	2.797	U	K	TRUH	FGKZ	bbr	rrb	3	650	1	6	01	5-Feb-16	20	Blue	m	0	2.2462	I	D	MIWA	VDEC	br	rb	2	650	1	6	01	5-Feb-16	21	Blue	j	1	0.8406	U	J	AFCU	PLVJ	bbbr	rrrb	4	2000	1	6	01	5-Feb-16	22	Blue	h	1	1.0493	L	H	WOLJ	VGHA	brr	rbb	3	2000	1	6	01	5-Feb-16	23	Blue	s	1	1.0265	O	S	NKOU	XHSM	rrr	bbb	3	2000	1	6	01	5-Feb-16	24	Blue	n	1	2.4262	R	N	RSQA	NMTK	r	b	1	650	1	6	01	5-Feb-16	25	Blue	s	0	1.48	C	N	CHZG	NOMY	b	r	1	2000	1	6	01	5-Feb-16	26	Blue	t	0	1.2883	G	F	TGSX	WFQM	br	rb	2	650	1	6	01	5-Feb-16	27	Blue	u	0	1.0152	V	A	DXVT	UHAE	rrb	bbr	3	650	1	6	01	5-Feb-16	28	Blue	i	0	0.7946	N	G	LUNP	MIGE	brr	rbb	3	2000	1	6	01	5-Feb-16	29	Blue	j	1	1.1095	Y	J	QFTY	AWGJ	bbbr	rrrb	4	2000	1	6	01	5-Feb-16	30	Blue	q	1	2.0677	Q	Y	QSBT	YGFE	b	r	1	650	1	6	01	5-Feb-16	31	Blue	m	0	1.7734	Y	G	TYSW	MGZD	rr	bb	2	650	1	6	01	5-Feb-16	32	Blue	a	0	1.0368	L	H	ALRW	VHPI	br	rb	2	2000	1	6	01	5-Feb-16	1	Red	k	0	1.1878	I	F	YTSI	KEDF	bbbr	rrrb	4	650	1	6	01	5-Feb-16	2	Red	y	0	1.3804	P	N	DPMT	YNEG	br	rb	2	650	1	6	01	5-Feb-16	3	Red	f	1	1.0966	F	X	FGER	XQCP	r	b	1	650	1	6	01	5-Feb-16	4	Red	q	0	0.4538	O	J	XOZD	QJKG	br	rb	2	2000	1	6	01	5-Feb-16	5	Red	g	1	1.141	S	G	MLSW	TBGI	bbb	rrr	3	2000	1	6	01	5-Feb-16	6	Red	q	1	1.4165	Q	P	QRAC	PDLU	r	b	1	2000	1	6	01	5-Feb-16	7	Red	l	1	0.9149	N	L	GFNU	YKLH	rbb	brr	3	650	1	6	01	5-Feb-16	8	Red	k	0	1.364	Z	W	IQJZ	SMKW	rbbr	brrb	4	2000	1	6	01	5-Feb-16	9	Red	j	1	0.953	J	P	VTJR	KNPO	bbr	rrb	3	650	1	6	01	5-Feb-16	10	Red	c	1	1.1644	C	B	ICKU	OBQP	rr	bb	2	2000	1	6	01	5-Feb-16	11	Red	b	0	1.0348	R	V	NMBR	XQLV	brrb	rbbr	4	650	1	6	01	5-Feb-16	12	Red	i	1	0.7972	W	I	YRDW	OCSI	brbb	rbrr	4	650	1	6	01	5-Feb-16	13	Red	j	1	0.8693	J	I	STJH	NBIQ	rrr	bbb	3	650	1	6	01	5-Feb-16	14	Red	a	1	1.0215	A	H	ZNAF	XSHL	brr	rbb	3	2000	1	6	01	5-Feb-16	15	Red	c	1	1.2475	C	G	HVAC	OXSG	rrrr	bbbb	4	650	1	6	01	5-Feb-16	16	Red	h	0	2.2981	N	G	SQNR	MHGE	bbb	rrr	3	2000	1	6	01	5-Feb-16	17	Red	r	1	1.6932	R	H	RPUV	HXWQ	r	b	1	650	1	6	01	5-Feb-16	18	Red	f	0	1.3579	O	W	GOXH	FWUI	bb	rr	2	650	1	6	01	5-Feb-16	19	Red	k	0	1.0512	Y	X	TYSP	KXGD	bb	rr	2	2000	1	6	01	5-Feb-16	20	Red	n	1	1.1217	F	N	FBVU	NGMR	b	r	1	2000	1	6	01	5-Feb-16	21	Red	o	0	0.9697	L	C	BFAL	YHOC	bbbr	rrrb	4	2000	1	6	01	5-Feb-16	22	Red	z	0	1.9555	G	K	DGAW	ZKSY	rr	bb	2	650	1	6	01	5-Feb-16	23	Red	r	0	1.4039	Q	O	BQFY	ROXL	rb	br	2	650	1	6	01	5-Feb-16	24	Red	i	1	0.87	I	H	BIGP	ZHOK	br	rb	2	2000	1	6	01	5-Feb-16	25	Red	w	1	0.8627	W	A	TCWR	YKAZ	rrr	bbb	3	2000	1	6	01	5-Feb-16	26	Red	y	1	0.9065	Y	C	YTOQ	CIUW	r	b	1	2000	1	6	01	5-Feb-16	27	Red	y	1	0.8854	F	Y	FIZM	YQGH	b	r	1	2000	1	6	01	5-Feb-16	28	Red	m	1	1.7134	Z	M	ZIPW	MGCJ	b	r	1	650	1	6	01	5-Feb-16	29	Red	d	0	0.7757	W	Y	KXQW	FHDY	rbbr	brrb	4	2000	1	6	01	5-Feb-16	30	Red	e	0	1.0885	J	G	CEJO	VAGK	rrb	bbr	3	650	1	6	01	5-Feb-16	31	Red	d	0	0.8182	Z	R	YJIZ	XSDR	rbbr	brrb	4	2000	1	6	01	5-Feb-16	32	Red	w	0	5.7845	F	E	FQTO	ESLI	r	b	1	650	1	6	01	5-Feb-16	1	Blue	l	0	1.6048	P	V	PFNL	VWYH	r	b	1	2000	1	6	01	5-Feb-16	2	Blue	c	1	1.0438	S	C	OFVS	EZKC	rrbr	bbrb	4	2000	1	6	01	5-Feb-16	3	Blue	s	1	1.7794	S	Z	SFMR	ZCQT	b	r	1	650	1	6	01	5-Feb-16	4	Blue	y	1	0.899	Y	J	KDYI	RWJB	rrb	bbr	3	2000	1	6	01	5-Feb-16	5	Blue	s	0	1.0177	V	I	UCVN	SJIZ	rbr	brb	3	650	1	6	01	5-Feb-16	6	Blue	n	0	1.0404	Q	R	KQFZ	NRDP	rr	bb	2	650	1	6	01	5-Feb-16	7	Blue	o	0	1.2429	M	J	TOHM	PFQJ	bbrb	rrbr	4	650	1	6	01	5-Feb-16	8	Blue	s	1	0.7821	S	U	CHJS	NTZU	rbrb	brbr	4	2000	1	6	01	5-Feb-16	9	Blue	i	1	0.8346	Y	I	DVGY	KUWI	brbr	rbrb	4	650	1	6	01	5-Feb-16	10	Blue	i	1	1.4012	A	I	CANU	LIHT	br	rb	2	650	1	6	01	5-Feb-16	11	Blue	n	0	0.9555	E	I	NEZJ	QITF	bb	rr	2	2000	1	6	01	5-Feb-16	12	Blue	u	1	1.8295	A	U	AOBY	UKCD	r	b	1	650	1	6	01	5-Feb-16	13	Blue	d	0	1.6018	K	H	DKWL	SHRO	bb	rr	2	650	1	6	01	5-Feb-16	14	Blue	b	1	0.8945	B	U	SKBF	CZUP	rbb	brr	3	2000	1	6	01	5-Feb-16	15	Blue	d	1	0.8703	W	D	UEKW	MIVD	brbr	rbrb	4	650	1	6	01	5-Feb-16	16	Blue	u	1	1.0212	B	U	DFBA	HRUT	rrr	bbb	3	2000	1	6	01	5-Feb-16	17	Blue	f	0	2.7739	F	H	FGCK	HZDU	r	b	1	650	1	6	01	5-Feb-16	18	Blue	d	0	2.6151	G	D	GEQJ	DCXA	b	r	1	2000	1	6	01	5-Feb-16	19	Blue	o	0	2.1553	Z	D	FJOZ	GISD	rrbr	bbrb	4	2000	1	6	01	5-Feb-16	20	Blue	v	1	1.0119	V	B	VMJQ	BFTZ	b	r	1	2000	1	6	01	5-Feb-16	21	Blue	c	0	1.0055	E	P	TOEF	CXPG	rrr	bbb	3	650	1	6	01	5-Feb-16	22	Blue	y	1	0.9573	Y	I	NYJT	KIUC	rb	br	2	2000	1	6	01	5-Feb-16	23	Blue	u	1	1.1295	P	U	DPRS	CUXI	rr	bb	2	2000	1	6	01	5-Feb-16	24	Blue	z	1	1.0139	Z	G	ZMHY	GAES	b	r	1	2000	1	6	01	5-Feb-16	25	Blue	s	1	0.91	U	S	AUTZ	PSEJ	rr	bb	2	2000	1	6	01	5-Feb-16	26	Blue	c	0	0.8984	L	W	CLRQ	JWKM	bb	rr	2	650	1	6	01	5-Feb-16	27	Blue	r	1	1.6359	R	K	RZHM	KBOV	b	r	1	650	1	6	01	5-Feb-16	28	Blue	i	1	0.8678	I	C	AJEI	MTDC	rrbb	bbrr	4	2000	1	6	01	5-Feb-16	29	Blue	c	1	0.9318	C	V	SGCD	QRVA	rrb	bbr	3	2000	1	6	01	5-Feb-16	30	Blue	e	1	1.209	E	R	CXEJ	VWRD	bbb	rrr	3	650	1	6	01	5-Feb-16	31	Blue	f	1	0.8669	F	G	MOFA	ZUGJ	rrb	bbr	3	650	1	6	01	5-Feb-16	32	Blue	c	0	1.0756	B	F	PXIB	GSCF	rbrb	brbr	4	650	1	6	01	5-Feb-16	1	Red	x	1	0.9611	Z	X	nnnZ	nnnX	brrb	rbbr	4	650	1	6	11	5-Feb-16	2	Red	w	1	1.1628	W	M	W	M	r	b	1	650	1	6	11	5-Feb-16	3	Red	l	1	1.0238	Q	L	nnnQ	nnnL	rbbb	brrr	4	650	1	6	11	5-Feb-16	4	Red	w	1	0.9583	W	J	W	J	r	b	1	650	1	6	11	5-Feb-16	5	Red	j	1	0.7391	J	S	nnJ	nnS	rrr	bbb	3	2000	1	6	11	5-Feb-16	6	Red	d	1	0.8085	G	D	nnnG	nnnD	bbrb	rrbr	4	2000	1	6	11	5-Feb-16	7	Red	j	0	2.3924	W	E	nW	nE	br	rb	2	650	1	6	11	5-Feb-16	8	Red	x	1	0.9988	V	X	V	X	b	r	1	650	1	6	11	5-Feb-16	9	Red	e	1	0.9413	K	E	nnnK	nnnE	rbbb	brrr	4	2000	1	6	11	5-Feb-16	10	Red	h	1	0.9079	H	G	nnnH	nnnG	bbrr	rrbb	4	2000	1	6	11	5-Feb-16	11	Red	g	1	1.0241	G	W	nnG	nnW	bbr	rrb	3	650	1	6	11	5-Feb-16	12	Red	x	1	1.8906	Q	X	nQ	nX	rb	br	2	2000	1	6	11	5-Feb-16	13	Red	u	1	0.858	R	U	nR	nU	bb	rr	2	650	1	6	11	5-Feb-16	14	Red	p	1	1.0357	C	P	nnC	nnP	rrb	bbr	3	2000	1	6	11	5-Feb-16	15	Red	l	1	1.1138	I	L	I	L	b	r	1	650	1	6	11	5-Feb-16	16	Red	w	1	1.0094	E	W	nnnE	nnnW	rrbb	bbrr	4	650	1	6	11	5-Feb-16	17	Red	r	1	1.1177	V	R	nnnV	nnnR	rbrb	brbr	4	2000	1	6	11	5-Feb-16	18	Red	h	1	1.0829	H	W	H	W	r	b	1	2000	1	6	11	5-Feb-16	19	Red	u	1	0.7393	V	U	nnV	nnU	rrb	bbr	3	2000	1	6	11	5-Feb-16	20	Red	u	0	1.6432	D	V	D	V	r	b	1	2000	1	6	11	5-Feb-16	21	Red	p	1	0.9271	T	P	T	P	b	r	1	2000	1	6	11	5-Feb-16	22	Red	p	1	0.8965	S	P	nS	nP	rb	br	2	650	1	6	11	5-Feb-16	23	Red	a	1	1.1093	W	A	nW	nA	bb	rr	2	2000	1	6	11	5-Feb-16	24	Red	m	1	0.8996	M	G	nM	nG	rr	bb	2	650	1	6	11	5-Feb-16	25	Red	h	1	0.7669	I	H	nI	nH	bb	rr	2	2000	1	6	11	5-Feb-16	26	Red	g	1	1.0404	P	G	P	G	b	r	1	2000	1	6	11	5-Feb-16	27	Red	i	1	0.8404	I	Z	nnI	nnZ	brr	rbb	3	650	1	6	11	5-Feb-16	28	Red	s	1	0.9525	U	S	nnU	nnS	rrb	bbr	3	650	1	6	11	5-Feb-16	29	Red	k	0	4.2617	H	S	nnH	nnS	brr	rbb	3	2000	1	6	11	5-Feb-16	30	Red	y	1	0.9257	Y	D	nnnY	nnnD	brrr	rbbb	4	650	1	6	11	5-Feb-16	31	Red	s	0	1.0105	X	T	nX	nT	bb	rr	2	2000	1	6	11	5-Feb-16	32	Red	x	1	0.7951	X	K	nnX	nnK	brr	rbb	3	650	1	6	11	5-Feb-16	1	Blue	b	1	0.7821	B	U	nnB	nnU	rbb	brr	3	650	1	6	11	5-Feb-16	2	Blue	p	1	0.7595	Z	P	nnZ	nnP	bbr	rrb	3	650	1	6	11	5-Feb-16	3	Blue	n	1	0.6306	E	N	E	N	r	b	1	650	1	6	11	5-Feb-16	4	Blue	g	1	0.8397	X	G	nnX	nnG	rrr	bbb	3	2000	1	6	11	5-Feb-16	5	Blue	t	0	2.2236	K	T	nnnK	nnnT	rrbb	bbrr	4	650	1	6	11	5-Feb-16	6	Blue	e	1	1.0185	C	E	nnnC	nnnE	rrbr	bbrb	4	2000	1	6	11	5-Feb-16	7	Blue	h	1	0.9088	H	I	nnH	nnI	rbb	brr	3	650	1	6	11	5-Feb-16	8	Blue	t	1	0.985	T	R	nT	nR	rb	br	2	2000	1	6	11	5-Feb-16	9	Blue	i	1	0.9914	I	F	nnnI	nnnF	brbb	rbrr	4	2000	1	6	11	5-Feb-16	10	Blue	q	0	0.9422	S	D	S	D	r	b	1	2000	1	6	11	5-Feb-16	11	Blue	q	1	1.0416	H	Q	nH	nQ	br	rb	2	650	1	6	11	5-Feb-16	12	Blue	i	1	0.9044	I	P	nI	nP	rb	br	2	650	1	6	11	5-Feb-16	13	Blue	k	1	0.8319	K	S	nnK	nnS	rbb	brr	3	2000	1	6	11	5-Feb-16	14	Blue	k	1	1.2134	S	K	nS	nK	rr	bb	2	650	1	6	11	5-Feb-16	15	Blue	r	1	0.7788	B	R	nnnB	nnnR	rbbr	brrb	4	650	1	6	11	5-Feb-16	16	Blue	d	1	0.8486	D	L	D	L	b	r	1	650	1	6	11	5-Feb-16	17	Blue	b	1	0.7555	U	B	nnnU	nnnB	brrr	rbbb	4	2000	1	6	11	5-Feb-16	18	Blue	a	1	1.1257	A	O	nA	nO	bb	rr	2	2000	1	6	11	5-Feb-16	19	Blue	v	1	3.4199	L	V	nnnL	nnnV	rrbr	bbrb	4	650	1	6	11	5-Feb-16	20	Blue	t	1	0.4409	O	T	O	T	r	b	1	2000	1	6	11	5-Feb-16	21	Blue	v	0	1.189	B	V	nnB	nnV	brb	rbr	3	650	1	6	11	5-Feb-16	22	Blue	w	0	1.5358	G	D	G	D	b	r	1	2000	1	6	11	5-Feb-16	23	Blue	v	1	0.7185	V	Z	nnV	nnZ	rrb	bbr	3	2000	1	6	11	5-Feb-16	24	Blue	j	1	0.7557	M	J	nM	nJ	rr	bb	2	2000	1	6	11	5-Feb-16	25	Blue	c	0	1.8837	D	Z	nD	nZ	bb	rr	2	650	1	6	11	5-Feb-16	26	Blue	u	1	0.8072	Q	U	nnnQ	nnnU	rrrr	bbbb	4	650	1	6	11	5-Feb-16	27	Blue	b	1	0.7581	L	B	L	B	r	b	1	2000	1	6	11	5-Feb-16	28	Blue	y	1	0.7066	A	Y	nnA	nnY	brr	rbb	3	2000	1	6	11	5-Feb-16	29	Blue	l	1	0.7206	A	L	nnnA	nnnL	bbrr	rrbb	4	2000	1	6	11	5-Feb-16	30	Blue	r	1	1.3644	F	R	nF	nR	br	rb	2	2000	1	6	11	5-Feb-16	31	Blue	a	1	0.817	A	K	A	K	b	r	1	650	1	6	11	5-Feb-16	32	Blue	y	1	0.9022	K	Y	K	Y	r	b	1	650	1	6	11	5-Feb-16	1	Red	f	1	0.9325	W	F	nnW	nnF	brb	rbr	3	2000	1	6	11	5-Feb-16	2	Red	d	1	0.6415	D	C	nnnD	nnnC	rrrr	bbbb	4	650	1	6	11	5-Feb-16	3	Red	v	1	0.8969	R	V	nR	nV	bb	rr	2	2000	1	6	11	5-Feb-16	4	Red	l	1	0.7667	L	Q	nnL	nnQ	bbr	rrb	3	2000	1	6	11	5-Feb-16	5	Red	r	1	0.8089	G	R	nG	nR	rb	br	2	2000	1	6	11	5-Feb-16	6	Red	y	1	0.2453	Z	Y	nnnZ	nnnY	rbrb	brbr	4	2000	1	6	11	5-Feb-16	7	Red	a	1	0.6716	A	O	nA	nO	br	rb	2	2000	1	6	11	5-Feb-16	8	Red	c	1	0.2728	U	C	nnnU	nnnC	rbbb	brrr	4	2000	1	6	11	5-Feb-16	9	Red	r	1	0.7312	E	R	E	R	b	r	1	2000	1	6	11	5-Feb-16	10	Red	r	1	0.5976	T	R	T	R	b	r	1	2000	1	6	11	5-Feb-16	11	Red	i	1	0.7326	I	U	nnI	nnU	brr	rbb	3	650	1	6	11	5-Feb-16	12	Red	d	1	0.9213	D	O	nnD	nnO	bbr	rrb	3	650	1	6	11	5-Feb-16	13	Red	w	0	0.8613	H	N	nH	nN	br	rb	2	2000	1	6	11	5-Feb-16	14	Red	h	0	0.8724	N	H	N	H	r	b	1	650	1	6	11	5-Feb-16	15	Red	m	1	0.7746	A	M	nA	nM	bb	rr	2	650	1	6	11	5-Feb-16	16	Red	z	1	0.8799	Z	O	nnnZ	nnnO	rrbr	bbrb	4	650	1	6	11	5-Feb-16	17	Red	w	1	0.7265	W	V	nW	nV	br	rb	2	650	1	6	11	5-Feb-16	18	Red	a	1	0.7909	A	C	A	C	r	b	1	650	1	6	11	5-Feb-16	19	Red	s	0	0.626	Q	D	nnnQ	nnnD	rbbb	brrr	4	2000	1	6	11	5-Feb-16	20	Red	k	1	2.3537	K	U	nK	nU	br	rb	2	650	1	6	11	5-Feb-16	21	Red	q	1	0.8924	Z	Q	nnZ	nnQ	bbb	rrr	3	2000	1	6	11	5-Feb-16	22	Red	y	1	0.9146	H	Y	nnH	nnY	rrb	bbr	3	650	1	6	11	5-Feb-16	23	Red	p	1	0.7496	V	P	V	P	b	r	1	2000	1	6	11	5-Feb-16	24	Red	c	1	0.4754	C	X	nnnC	nnnX	rbbr	brrb	4	2000	1	6	11	5-Feb-16	25	Red	g	1	0.8057	G	I	G	I	r	b	1	2000	1	6	11	5-Feb-16	26	Red	o	1	1.7632	O	H	O	H	r	b	1	650	1	6	11	5-Feb-16	27	Red	u	1	0.8598	T	U	nnnT	nnnU	rrrb	bbbr	4	650	1	6	11	5-Feb-16	28	Red	f	1	0.6607	F	V	nnF	nnV	bbr	rrb	3	2000	1	6	11	5-Feb-16	29	Red	h	1	0.7408	M	H	nnnM	nnnH	brrb	rbbr	4	650	1	6	11	5-Feb-16	30	Red	r	1	1.3023	R	T	nR	nT	br	rb	2	650	1	6	11	5-Feb-16	31	Red	t	1	1.1549	U	T	U	T	b	r	1	650	1	6	11	5-Feb-16	32	Red	x	1	0.704	X	Q	nnX	nnQ	rbr	brb	3	650	1	6	11	5-Feb-16	1	Blue	x	1	0.5971	X	I	nX	nI	rb	br	2	2000	1	6	11	5-Feb-16	2	Blue	r	1	0.6875	R	K	nnR	nnK	bbb	rrr	3	2000	1	6	11	5-Feb-16	3	Blue	y	1	0.583	Y	A	nnnY	nnnA	brbb	rbrr	4	2000	1	6	11	5-Feb-16	4	Blue	k	1	0.846	K	A	nK	nA	rb	br	2	650	1	6	11	5-Feb-16	5	Blue	f	1	0.6967	W	F	nnnW	nnnF	bbrr	rrbb	4	2000	1	6	11	5-Feb-16	6	Blue	g	1	0.6761	T	G	nT	nG	rr	bb	2	2000	1	6	11	5-Feb-16	7	Blue	l	1	0.3634	V	L	nnV	nnL	brr	rbb	3	2000	1	6	11	5-Feb-16	8	Blue	h	1	0.7288	H	E	H	E	b	r	1	2000	1	6	11	5-Feb-16	9	Blue	w	0	0.8662	M	C	M	C	b	r	1	650	1	6	11	5-Feb-16	10	Blue	c	1	0.7227	C	M	nnnC	nnnM	bbrb	rrbr	4	650	1	6	11	5-Feb-16	11	Blue	r	1	0.7418	M	R	nM	nR	rr	bb	2	650	1	6	11	5-Feb-16	12	Blue	s	1	0.7022	R	S	R	S	r	b	1	2000	1	6	11	5-Feb-16	13	Blue	a	1	1.3775	O	A	O	A	r	b	1	650	1	6	11	5-Feb-16	14	Blue	k	1	0.4551	K	C	nnK	nnC	rbb	brr	3	2000	1	6	11	5-Feb-16	15	Blue	v	1	0.923	M	V	nnM	nnV	rbr	brb	3	650	1	6	11	5-Feb-16	16	Blue	g	1	0.9028	G	A	G	A	b	r	1	650	1	6	11	5-Feb-16	17	Blue	m	1	0.7324	G	M	nnnG	nnnM	bbrr	rrbb	4	650	1	6	11	5-Feb-16	18	Blue	l	1	0.8011	U	L	nnU	nnL	rbr	brb	3	650	1	6	11	5-Feb-16	19	Blue	e	1	0.4292	E	F	nnnE	nnnF	bbrb	rrbr	4	2000	1	6	11	5-Feb-16	20	Blue	l	1	0.2794	J	L	nnnJ	nnnL	rbbr	brrb	4	2000	1	6	11	5-Feb-16	21	Blue	t	1	0.4638	U	T	nU	nT	rr	bb	2	2000	1	6	11	5-Feb-16	22	Blue	m	1	0.787	H	M	H	M	r	b	1	2000	1	6	11	5-Feb-16	23	Blue	p	1	0.7245	D	P	nnD	nnP	rbr	brb	3	650	1	6	11	5-Feb-16	24	Blue	x	1	0.6729	O	X	nnO	nnX	bbr	rrb	3	2000	1	6	11	5-Feb-16	25	Blue	r	1	0.4459	R	W	nR	nW	bb	rr	2	2000	1	6	11	5-Feb-16	26	Blue	h	1	1.0202	H	G	nnnH	nnnG	brbb	rbrr	4	650	1	6	11	5-Feb-16	27	Blue	i	1	0.9967	I	X	I	X	b	r	1	650	1	6	11	5-Feb-16	28	Blue	g	1	0.8681	W	G	nW	nG	rr	bb	2	650	1	6	11	5-Feb-16	29	Blue	t	1	0.958	T	M	nnnT	nnnM	rrrb	bbbr	4	650	1	6	11	5-Feb-16	30	Blue	o	1	0.7605	N	O	nnN	nnO	brr	rbb	3	650	1	6	11	5-Feb-16	31	Blue	c	1	0.8008	W	C	nW	nC	br	rb	2	650	1	6	11	5-Feb-16	32	Blue	w	1	1.0245	X	W	X	W	r	b	1	2000	1	6	12	9-Feb-16	1	Red	r	1	0.7566	R	T	nnnR	nnnT	rbbr	brrb	4	2000	1	6	12	9-Feb-16	2	Red	i	1	0.3571	I	L	I	L	r	b	1	2000	1	6	12	9-Feb-16	3	Red	y	1	0.4219	Y	S	nY	nS	rr	bb	2	2000	1	6	12	9-Feb-16	4	Red	q	0	1.0667	A	D	nA	nD	bb	rr	2	650	1	6	12	9-Feb-16	5	Red	p	1	1.7425	P	N	P	N	r	b	1	2000	1	6	12	9-Feb-16	6	Red	l	1	0.4573	L	E	nnL	nnE	brr	rbb	3	2000	1	6	12	9-Feb-16	7	Red	b	0	1.096	E	V	nnnE	nnnV	rrrb	bbbr	4	650	1	6	12	9-Feb-16	8	Red	i	1	0.831	J	I	nnJ	nnI	bbb	rrr	3	650	1	6	12	9-Feb-16	9	Red	q	1	0.9879	D	Q	D	Q	b	r	1	650	1	6	12	9-Feb-16	10	Red	r	0	1.0125	X	Q	nX	nQ	rb	br	2	650	1	6	12	9-Feb-16	11	Red	l	1	0.416	R	L	nnR	nnL	brb	rbr	3	2000	1	6	12	9-Feb-16	12	Red	c	1	0.8996	C	L	nC	nL	rr	bb	2	650	1	6	12	9-Feb-16	13	Red	b	1	0.8004	Y	B	nY	nB	bb	rr	2	650	1	6	12	9-Feb-16	14	Red	c	1	1.8898	L	C	nnL	nnC	rrb	bbr	3	650	1	6	12	9-Feb-16	15	Red	r	0	1.4296	M	A	nnM	nnA	bbr	rrb	3	2000	1	6	12	9-Feb-16	16	Red	e	0	1.2895	A	W	nnnA	nnnW	brrb	rbbr	4	650	1	6	12	9-Feb-16	17	Red	y	1	1.0959	F	Y	F	Y	b	r	1	650	1	6	12	9-Feb-16	18	Red	o	1	0.9234	O	X	O	X	r	b	1	650	1	6	12	9-Feb-16	19	Red	u	1	0.8937	U	P	U	P	r	b	1	2000	1	6	12	9-Feb-16	20	Red	u	1	0.8	I	U	nnnI	nnnU	brbb	rbrr	4	2000	1	6	12	9-Feb-16	21	Red	l	1	0.3546	L	D	nnL	nnD	rrr	bbb	3	2000	1	6	12	9-Feb-16	22	Red	z	1	0.9308	Z	O	nnZ	nnO	rrr	bbb	3	650	1	6	12	9-Feb-16	23	Red	l	1	0.0522	L	A	L	A	r	b	1	2000	1	6	12	9-Feb-16	24	Red	r	0	0.7911	L	Q	nL	nQ	bb	rr	2	2000	1	6	12	9-Feb-16	25	Red	d	1	0.3567	D	W	nnnD	nnnW	brbr	rbrb	4	2000	1	6	12	9-Feb-16	26	Red	y	1	0.3766	Y	G	nnnY	nnnG	rrrr	bbbb	4	2000	1	6	12	9-Feb-16	27	Red	p	1	0.2803	A	P	nA	nP	bb	rr	2	2000	1	6	12	9-Feb-16	28	Red	o	1	0.3218	O	Q	nO	nQ	rr	bb	2	2000	1	6	12	9-Feb-16	29	Red	b	0	2.3568	Q	D	nnnQ	nnnD	rrrb	bbbr	4	650	1	6	12	9-Feb-16	30	Red	t	0	2.8335	E	N	nnnE	nnnN	brrb	rbbr	4	650	1	6	12	9-Feb-16	31	Red	i	0	1.4327	I	O	I	O	b	r	1	650	1	6	12	9-Feb-16	32	Red	j	1	0.8992	J	Y	nnJ	nnY	rrr	bbb	3	650	1	6	12	9-Feb-16	1	Blue	l	1	0.7861	X	L	nnX	nnL	rrr	bbb	3	650	1	6	12	9-Feb-16	2	Blue	f	1	0.267	X	F	nnX	nnF	rbr	brb	3	2000	1	6	12	9-Feb-16	3	Blue	b	0	1.5747	B	N	nnB	nnN	rrr	bbb	3	650	1	6	12	9-Feb-16	4	Blue	q	1	0.3195	I	Q	nnI	nnQ	rrr	bbb	3	2000	1	6	12	9-Feb-16	5	Blue	b	0	3.7873	G	K	nnnG	nnnK	rrbr	bbrb	4	650	1	6	12	9-Feb-16	6	Blue	v	1	1.013	V	O	nnnV	nnnO	bbrb	rrbr	4	650	1	6	12	9-Feb-16	7	Blue	y	1	0.1595	E	Y	nnE	nnY	bbr	rrb	3	2000	1	6	12	9-Feb-16	8	Blue	r	1	0.7326	O	R	nO	nR	br	rb	2	650	1	6	12	9-Feb-16	9	Blue	l	1	1.1765	L	I	nnL	nnI	bbb	rrr	3	650	1	6	12	9-Feb-16	10	Blue	u	1	0.7863	A	U	A	U	r	b	1	650	1	6	12	9-Feb-16	11	Blue	o	1	0.4035	K	O	nK	nO	br	rb	2	2000	1	6	12	9-Feb-16	12	Blue	d	0	2.867	H	P	nnH	nnP	rbb	brr	3	650	1	6	12	9-Feb-16	13	Blue	d	1	0.2935	D	C	nnnD	nnnC	rrrb	bbbr	4	2000	1	6	12	9-Feb-16	14	Blue	z	1	1.0382	Z	S	nZ	nS	rb	br	2	650	1	6	12	9-Feb-16	15	Blue	h	1	0.9265	H	W	nH	nW	bb	rr	2	650	1	6	12	9-Feb-16	16	Blue	j	0	0.9354	K	J	K	J	b	r	1	650	1	6	12	9-Feb-16	17	Blue	h	1	1.0957	H	B	nnnH	nnnB	rrrb	bbbr	4	2000	1	6	12	9-Feb-16	18	Blue	b	1	0.311	L	B	nL	nB	rr	bb	2	2000	1	6	12	9-Feb-16	19	Blue	i	1	0.3591	F	I	F	I	r	b	1	2000	1	6	12	9-Feb-16	20	Blue	d	1	0.3688	Z	D	nnnZ	nnnD	bbrr	rrbb	4	2000	1	6	12	9-Feb-16	21	Blue	z	1	0.3432	Z	H	Z	H	b	r	1	2000	1	6	12	9-Feb-16	22	Blue	a	1	0.3847	D	A	nD	nA	rr	bb	2	2000	1	6	12	9-Feb-16	23	Blue	c	1	0.833	C	U	nnnC	nnnU	brrb	rbbr	4	650	1	6	12	9-Feb-16	24	Blue	z	1	0.031	N	Z	N	Z	r	b	1	2000	1	6	12	9-Feb-16	25	Blue	v	1	1.0983	V	S	nV	nS	rb	br	2	650	1	6	12	9-Feb-16	26	Blue	b	1	0.7747	Q	B	Q	B	r	b	1	650	1	6	12	9-Feb-16	27	Blue	y	1	0.3062	K	Y	nnnK	nnnY	rrbr	bbrb	4	2000	1	6	12	9-Feb-16	28	Blue	r	1	0.3149	F	R	F	R	r	b	1	2000	1	6	12	9-Feb-16	29	Blue	k	1	0.3814	K	W	nK	nW	bb	rr	2	2000	1	6	12	9-Feb-16	30	Blue	f	1	0.3337	F	Z	nnF	nnZ	brb	rbr	3	2000	1	6	12	9-Feb-16	31	Blue	m	1	0.7259	A	M	A	M	r	b	1	650	1	6	12	9-Feb-16	32	Blue	b	1	0.8017	A	B	nnnA	nnnB	brrr	rbbb	4	650	1	6	12	9-Feb-16	1	Red	a	0	1.2187	F	X	F	X	r	b	1	2000	1	6	12	9-Feb-16	2	Red	b	0	1.6354	X	Q	X	Q	b	r	1	2000	1	6	12	9-Feb-16	3	Red	f	1	0.3405	O	F	O	F	b	r	1	2000	1	6	12	9-Feb-16	4	Red	o	0	1.2356	Q	L	nQ	nL	br	rb	2	650	1	6	12	9-Feb-16	5	Red	p	1	0.3662	P	J	nnP	nnJ	rbr	brb	3	2000	1	6	12	9-Feb-16	6	Red	q	1	0.3883	W	Q	W	Q	b	r	1	650	1	6	12	9-Feb-16	7	Red	k	1	0.3504	K	W	nnK	nnW	rbr	brb	3	2000	1	6	12	9-Feb-16	8	Red	t	1	0.6787	L	T	nL	nT	rb	br	2	2000	1	6	12	9-Feb-16	9	Red	j	1	0.8749	J	U	nnJ	nnU	brr	rbb	3	650	1	6	12	9-Feb-16	10	Red	b	0	2.3039	P	I	nP	nI	bb	rr	2	650	1	6	12	9-Feb-16	11	Red	b	0	1.2576	A	W	A	W	b	r	1	650	1	6	12	9-Feb-16	12	Red	o	0	1.4907	O	F	nnO	nnF	rbb	brr	3	650	1	6	12	9-Feb-16	13	Red	z	1	0.3399	Z	C	nZ	nC	br	rb	2	2000	1	6	12	9-Feb-16	14	Red	q	0	2.122	Y	C	Y	C	b	r	1	2000	1	6	12	9-Feb-16	15	Red	c	1	0.3402	T	C	nT	nC	bb	rr	2	2000	1	6	12	9-Feb-16	16	Red	j	1	0.3991	J	B	nnJ	nnB	brr	rbb	3	2000	1	6	12	9-Feb-16	17	Red	r	1	1.0278	R	L	R	L	r	b	1	650	1	6	12	9-Feb-16	18	Red	g	1	0.3745	N	G	nnN	nnG	bbb	rrr	3	2000	1	6	12	9-Feb-16	19	Red	m	1	0.4102	R	M	nnnR	nnnM	rrrb	bbbr	4	2000	1	6	12	9-Feb-16	20	Red	f	1	0.4976	Z	F	nnnZ	nnnF	bbrb	rrbr	4	650	1	6	12	9-Feb-16	21	Red	c	0	0.972	I	D	nI	nD	bb	rr	2	650	1	6	12	9-Feb-16	22	Red	r	1	0.3986	R	Q	nnnR	nnnQ	rbrr	brbb	4	650	1	6	12	9-Feb-16	23	Red	o	1	0.3533	O	I	nnnO	nnnI	brbr	rbrb	4	2000	1	6	12	9-Feb-16	24	Red	z	1	0.7164	R	Z	nnnR	nnnZ	rbbb	brrr	4	650	1	6	12	9-Feb-16	25	Red	k	1	0.3541	N	K	nnnN	nnnK	rrrb	bbbr	4	2000	1	6	12	9-Feb-16	26	Red	s	1	0.3074	L	S	nL	nS	rb	br	2	2000	1	6	12	9-Feb-16	27	Red	b	1	0.7571	Q	B	nnQ	nnB	rbb	brr	3	650	1	6	12	9-Feb-16	28	Red	c	1	0.4897	I	C	nnnI	nnnC	rrrb	bbbr	4	650	1	6	12	9-Feb-16	29	Red	w	1	0.3688	A	W	nnnA	nnnW	rbbb	brrr	4	2000	1	6	12	9-Feb-16	30	Red	r	1	1.3424	R	L	R	L	r	b	1	650	1	6	12	9-Feb-16	31	Red	b	1	0.7558	L	B	nL	nB	bb	rr	2	650	1	6	12	9-Feb-16	32	Red	s	1	0.2132	S	E	nnS	nnE	bbr	rrb	3	650	1	6	12	9-Feb-16	1	Blue	t	1	0.947	T	L	nT	nL	rb	br	2	2000	1	6	12	9-Feb-16	2	Blue	b	1	0.3359	P	B	nnnP	nnnB	brbr	rbrb	4	650	1	6	12	9-Feb-16	3	Blue	v	1	0.4298	E	V	E	V	r	b	1	2000	1	6	12	9-Feb-16	4	Blue	i	1	0.8121	I	P	nnI	nnP	rrb	bbr	3	650	1	6	12	9-Feb-16	5	Blue	h	1	0.4938	Y	H	nnnY	nnnH	bbrr	rrbb	4	650	1	6	12	9-Feb-16	6	Blue	f	1	0.2982	A	F	nA	nF	rr	bb	2	2000	1	6	12	9-Feb-16	7	Blue	s	1	0.6023	E	S	nE	nS	rr	bb	2	650	1	6	12	9-Feb-16	8	Blue	q	1	0.4161	V	Q	V	Q	r	b	1	650	1	6	12	9-Feb-16	9	Blue	c	1	0.2732	C	J	nnC	nnJ	rrb	bbr	3	2000	1	6	12	9-Feb-16	10	Blue	j	1	0.2875	J	M	nnnJ	nnnM	bbrb	rrbr	4	2000	1	6	12	9-Feb-16	11	Blue	c	0	0.7376	C	Q	nC	nQ	br	rb	2	650	1	6	12	9-Feb-16	12	Blue	d	1	0.6996	K	D	nnK	nnD	rrr	bbb	3	650	1	6	12	9-Feb-16	13	Blue	o	0	1.1716	D	Q	nnnD	nnnQ	rrbr	bbrb	4	2000	1	6	12	9-Feb-16	14	Blue	z	0	0.6043	Q	E	Q	E	b	r	1	650	1	6	12	9-Feb-16	15	Blue	s	0	2.2226	E	S	nnE	nnS	rrb	bbr	3	650	1	6	12	9-Feb-16	16	Blue	o	1	0.3167	O	R	nO	nR	rb	br	2	2000	1	6	12	9-Feb-16	17	Blue	k	1	0.4564	I	K	nnI	nnK	bbr	rrb	3	2000	1	6	12	9-Feb-16	18	Blue	i	1	0.7543	Y	I	nY	nI	rr	bb	2	650	1	6	12	9-Feb-16	19	Blue	a	1	0.7245	B	A	B	A	r	b	1	650	1	6	12	9-Feb-16	20	Blue	t	1	0.325	Y	T	Y	T	r	b	1	2000	1	6	12	9-Feb-16	21	Blue	b	1	0.4486	B	Z	nnB	nnZ	rrb	bbr	3	2000	1	6	12	9-Feb-16	22	Blue	f	1	0.0026	F	Q	F	Q	b	r	1	2000	1	6	12	9-Feb-16	23	Blue	r	1	0.3307	R	Y	nnnR	nnnY	bbbb	rrrr	4	2000	1	6	12	9-Feb-16	24	Blue	w	0	1.5876	F	J	nF	nJ	bb	rr	2	650	1	6	12	9-Feb-16	25	Blue	z	0	0.3436	Q	N	Q	N	b	r	1	2000	1	6	12	9-Feb-16	26	Blue	y	1	0.6983	U	Y	nnnU	nnnY	bbbr	rrrb	4	650	1	6	12	9-Feb-16	27	Blue	i	1	0.5036	K	I	nnnK	nnnI	rbrr	brbb	4	650	1	6	12	9-Feb-16	28	Blue	m	1	1.1376	M	V	nM	nV	bb	rr	2	2000	1	6	12	9-Feb-16	29	Blue	m	1	0.8028	L	M	nnnL	nnnM	rrrr	bbbb	4	2000	1	6	12	9-Feb-16	30	Blue	j	1	0.7394	S	J	nnS	nnJ	rbr	brb	3	650	1	6	12	9-Feb-16	31	Blue	x	1	1.0113	E	X	E	X	r	b	1	650	1	6	12	9-Feb-16	32	Blue	r	1	0.3504	R	S	nnR	nnS	rbb	brr	3	2000	1	6	12	9-Feb-16	1	Red	w	1	1.2125	U	W	UXKJ	WQLD	b	r	1	650	1	6	02	9-Feb-16	2	Red	l	0	1.5093	H	J	LHEG	MJSP	rr	bb	2	2000	1	6	02	9-Feb-16	3	Red	b	0	1.0773	Q	D	QLPX	DRWZ	r	b	1	2000	1	6	02	9-Feb-16	4	Red	z	1	0.4256	Z	M	ZWNH	MPTV	r	b	1	2000	1	6	02	9-Feb-16	5	Red	y	1	0.3341	Y	N	YLVZ	NOUC	r	b	1	2000	1	6	02	9-Feb-16	6	Red	j	1	0.355	H	J	WUZH	ICKJ	brbb	rbrr	4	2000	1	6	02	9-Feb-16	7	Red	e	1	0.3117	K	E	DRUK	YLIE	rbbb	brrr	4	2000	1	6	02	9-Feb-16	8	Red	u	1	0.2669	U	O	PYNU	JEMO	rrrr	bbbb	4	2000	1	6	02	9-Feb-16	9	Red	k	1	1.1185	E	K	SEHQ	IKYJ	rb	br	2	2000	1	6	02	9-Feb-16	10	Red	h	0	1.6132	N	J	HWNZ	SQJT	rbr	brb	3	650	1	6	02	9-Feb-16	11	Red	h	1	1.1758	R	H	RTLF	HBQM	b	r	1	650	1	6	02	9-Feb-16	12	Red	z	0	0.8413	V	U	ZVFT	SUAK	rr	bb	2	650	1	6	02	9-Feb-16	13	Red	w	0	1.0269	T	Q	DHTZ	EBQJ	rrb	bbr	3	2000	1	6	02	9-Feb-16	14	Red	d	1	0.7631	N	D	WJNO	XSDI	brb	rbr	3	650	1	6	02	9-Feb-16	15	Red	a	0	1.5158	M	Z	TMUI	KZDB	br	rb	2	650	1	6	02	9-Feb-16	16	Red	w	1	1.1239	P	W	PSIK	WHMF	b	r	1	2000	1	6	02	9-Feb-16	17	Red	i	1	1.1224	P	I	ZBPC	DQIJ	brb	rbr	3	2000	1	6	02	9-Feb-16	18	Red	g	1	0.8966	T	G	RBTE	QDGJ	rrb	bbr	3	2000	1	6	02	9-Feb-16	19	Red	r	0	0.8877	U	R	NAUF	JBRE	brr	rbb	3	2000	1	6	02	9-Feb-16	20	Red	i	1	1.039	Q	I	LEQZ	CDIU	bbb	rrr	3	650	1	6	02	9-Feb-16	21	Red	b	0	0.9256	H	D	EHZR	BDUC	br	rb	2	2000	1	6	02	9-Feb-16	22	Red	b	0	1.7047	H	Q	YHWO	TQPE	bb	rr	2	650	1	6	02	9-Feb-16	23	Red	h	1	0.5318	H	K	TUPH	MJOK	brrr	rbbb	4	650	1	6	02	9-Feb-16	24	Red	y	1	1.1651	Y	B	DGYN	MEBU	rrr	bbb	3	650	1	6	02	9-Feb-16	25	Red	b	0	0.6117	Y	K	GMZY	JFSK	bbbr	rrrb	4	650	1	6	02	9-Feb-16	26	Red	w	0	2.6485	E	A	EKMQ	ATFZ	r	b	1	650	1	6	02	9-Feb-16	27	Red	e	0	1.8265	X	B	FKAX	LYJB	bbbr	rrrb	4	650	1	6	02	9-Feb-16	28	Red	w	0	0.9421	U	M	ULSC	MFQW	r	b	1	650	1	6	02	9-Feb-16	29	Red	t	1	1.3907	I	T	OICY	XTKW	rb	br	2	650	1	6	02	9-Feb-16	30	Red	b	0	0.6629	D	U	ZXBD	QTWU	rbbr	brrb	4	2000	1	6	02	9-Feb-16	31	Red	l	1	0.8691	L	E	BLQA	OEUM	rr	bb	2	2000	1	6	02	9-Feb-16	32	Red	u	1	0.6849	S	U	XDIS	TLAU	rbbb	brrr	4	650	1	6	02	9-Feb-16	1	Blue	s	1	0.4305	S	Y	QCNS	JZMY	rrbb	bbrr	4	650	1	6	02	9-Feb-16	2	Blue	b	1	0.7637	B	I	JBAE	VIRN	rb	br	2	2000	1	6	02	9-Feb-16	3	Blue	j	1	0.9747	X	J	HVXE	AYJN	bbr	rrb	3	650	1	6	02	9-Feb-16	4	Blue	t	1	2.2248	N	T	KNZY	QTHO	rr	bb	2	2000	1	6	02	9-Feb-16	5	Blue	s	1	0.3933	Y	S	UNPY	ZOMS	bbrr	rrbb	4	650	1	6	02	9-Feb-16	6	Blue	h	1	6.4469	H	X	JHGK	LXIS	rb	br	2	650	1	6	02	9-Feb-16	7	Blue	a	0	1.2548	Y	N	YQDW	NPGJ	b	r	1	650	1	6	02	9-Feb-16	8	Blue	s	1	0.6892	U	S	XKUE	ZRSY	brr	rbb	3	650	1	6	02	9-Feb-16	9	Blue	a	0	0.762	R	P	RAZV	PUKQ	b	r	1	650	1	6	02	9-Feb-16	10	Blue	u	1	1.1882	U	K	UQEV	KYOD	b	r	1	2000	1	6	02	9-Feb-16	11	Blue	k	1	1.5961	M	K	ZMSF	LKCH	rr	bb	2	650	1	6	02	9-Feb-16	12	Blue	z	0	1.3067	C	Q	JSZC	NMTQ	brrb	rbbr	4	650	1	6	02	9-Feb-16	13	Blue	a	0	1.4495	P	S	ZPXB	JSEM	bb	rr	2	650	1	6	02	9-Feb-16	14	Blue	m	0	0.7533	D	R	DTZM	RNGU	b	r	1	2000	1	6	02	9-Feb-16	15	Blue	d	1	0.6307	D	K	QLDH	JXKN	bbb	rrr	3	2000	1	6	02	9-Feb-16	16	Blue	c	1	3.3043	C	T	SKLC	YJDT	brbb	rbrr	4	2000	1	6	02	9-Feb-16	17	Blue	d	1	0.9051	D	E	SDAK	GEUR	rb	br	2	2000	1	6	02	9-Feb-16	18	Blue	a	1	0.4782	W	A	DKWL	XVAY	rbr	brb	3	650	1	6	02	9-Feb-16	19	Blue	r	0	1.8957	M	S	MPYB	SRIQ	b	r	1	650	1	6	02	9-Feb-16	20	Blue	y	1	1.435	Y	H	CWYP	OQHB	bbb	rrr	3	650	1	6	02	9-Feb-16	21	Blue	i	1	1.0693	I	X	IEGJ	XKOP	b	r	1	2000	1	6	02	9-Feb-16	22	Blue	u	1	1.0385	U	T	AMUN	KITH	bbb	rrr	3	2000	1	6	02	9-Feb-16	23	Blue	p	0	1.3005	P	A	PIOJ	AXMC	r	b	1	2000	1	6	02	9-Feb-16	24	Blue	q	1	0.8453	Q	A	SIQL	CFAG	rrb	bbr	3	2000	1	6	02	9-Feb-16	25	Blue	a	1	1.2036	Q	A	XQPW	IAOF	br	rb	2	650	1	6	02	9-Feb-16	26	Blue	c	0	0.3609	O	J	KHCO	GRDJ	rbrb	brbr	4	2000	1	6	02	9-Feb-16	27	Blue	x	1	1.2384	L	X	LVDW	XPKZ	r	b	1	650	1	6	02	9-Feb-16	28	Blue	p	1	1.2397	R	P	ORKF	XPLA	br	rb	2	2000	1	6	02	9-Feb-16	29	Blue	e	1	0.2936	E	X	TMWE	KPNX	brbb	rbrr	4	2000	1	6	02	9-Feb-16	30	Blue	i	1	0.3383	I	M	VWLI	GYTM	rrbb	bbrr	4	2000	1	6	02	9-Feb-16	31	Blue	o	1	1.1182	G	O	CLGB	TQOX	rbr	brb	3	2000	1	6	02	9-Feb-16	32	Blue	o	1	0.5401	O	X	IHMO	SDCX	brrb	rbbr	4	650	1	6	02	9-Feb-16	1	Red	v	0	1.8855	B	K	BGWJ	KANZ	b	r	1	650	1	6	02	9-Feb-16	2	Red	c	1	0.3827	E	C	BEQK	WCHY	rb	br	2	2000	1	6	02	9-Feb-16	3	Red	e	1	0.647	E	L	WIME	GRKL	rbbr	brrb	4	650	1	6	02	9-Feb-16	4	Red	a	0	1.0958	D	V	NKID	BOHV	rrrb	bbbr	4	650	1	6	02	9-Feb-16	5	Red	t	1	1.3106	X	T	PXUW	KTBN	bb	rr	2	2000	1	6	02	9-Feb-16	6	Red	c	1	0.2887	Y	C	MBHY	IFLC	brrb	rbbr	4	2000	1	6	02	9-Feb-16	7	Red	a	0	1.4491	J	Z	OJXR	KZVH	br	rb	2	650	1	6	02	9-Feb-16	8	Red	w	0	1.5061	P	H	YPDC	EHFA	rb	br	2	650	1	6	02	9-Feb-16	9	Red	h	1	0.6676	H	G	JCBH	FOTG	brbr	rbrb	4	650	1	6	02	9-Feb-16	10	Red	v	1	3.216	V	G	VBAP	GWXU	r	b	1	650	1	6	02	9-Feb-16	11	Red	c	1	2.2022	Y	C	ZYQT	XCSU	rb	br	2	650	1	6	02	9-Feb-16	12	Red	g	1	1.3559	P	G	QFPI	SLGE	rrb	bbr	3	2000	1	6	02	9-Feb-16	13	Red	u	1	1.3055	U	A	WJUR	NKAP	bbr	rrb	3	650	1	6	02	9-Feb-16	14	Red	d	1	1.8557	D	Q	RBDS	WVQF	brr	rbb	3	650	1	6	02	9-Feb-16	15	Red	b	1	0.2639	N	B	RUHN	LXYB	rrrb	bbbr	4	2000	1	6	02	9-Feb-16	16	Red	k	1	1.214	K	N	FPKR	OINT	brr	rbb	3	2000	1	6	02	9-Feb-16	17	Red	a	0	1.2774	X	L	XBUP	LZER	r	b	1	2000	1	6	02	9-Feb-16	18	Red	t	1	1.8462	G	T	JYGC	SPTO	rrb	bbr	3	650	1	6	02	9-Feb-16	19	Red	b	0	1.3559	N	U	BAVN	LQEU	brbr	rbrb	4	650	1	6	02	9-Feb-16	20	Red	g	1	2.488	G	R	GTOH	RSIM	r	b	1	650	1	6	02	9-Feb-16	21	Red	u	0	1.7633	X	E	XPGM	ENWS	r	b	1	2000	1	6	02	9-Feb-16	22	Red	f	0	1.1849	P	F	PBHN	FAJS	r	b	1	2000	1	6	02	9-Feb-16	23	Red	r	1	1.1719	M	R	TYMF	AVRB	bbb	rrr	3	650	1	6	02	9-Feb-16	24	Red	q	1	1.2306	I	Q	IESK	QAGL	b	r	1	650	1	6	02	9-Feb-16	25	Red	u	1	1.2332	Y	U	QGYR	JLUI	brb	rbr	3	2000	1	6	02	9-Feb-16	26	Red	s	1	1.2615	Q	S	GKQN	RPSO	rbb	brr	3	2000	1	6	02	9-Feb-16	27	Red	p	0	4.8379	N	E	HNSV	KECG	br	rb	2	2000	1	6	02	9-Feb-16	28	Red	i	1	1.1615	I	K	HIMY	OKEC	br	rb	2	2000	1	6	02	9-Feb-16	29	Red	f	1	0.2808	Q	F	SKUQ	RCEF	brrb	rbbr	4	2000	1	6	02	9-Feb-16	30	Red	f	1	1.2587	O	F	OLVC	FKUG	b	r	1	2000	1	6	02	9-Feb-16	31	Red	h	1	1.2889	J	H	CJUL	THIZ	bb	rr	2	650	1	6	02	9-Feb-16	32	Red	m	1	0.836	M	C	NKEM	SJXC	rrbr	bbrb	4	2000	1	6	02	9-Feb-16	1	Blue	w	1	1.224	H	W	AHNL	MWEG	rr	bb	2	2000	1	6	02	9-Feb-16	2	Blue	u	0	2.0409	Y	C	WYNI	KCVJ	rb	br	2	650	1	6	02	9-Feb-16	3	Blue	l	1	0.3214	M	L	NIYM	XJPL	rrbr	bbrb	4	2000	1	6	02	9-Feb-16	4	Blue	s	1	1.6191	R	S	TRPK	ASHJ	br	rb	2	2000	1	6	02	9-Feb-16	5	Blue	r	1	1.7268	R	L	DNRG	VSLC	rbb	brr	3	650	1	6	02	9-Feb-16	6	Blue	t	0	2.1741	L	T	LUDW	TCHM	b	r	1	2000	1	6	02	9-Feb-16	7	Blue	r	1	1.2785	R	C	REUZ	CNXM	b	r	1	2000	1	6	02	9-Feb-16	8	Blue	p	1	0.3214	P	N	HGXP	SURN	rbrb	brbr	4	2000	1	6	02	9-Feb-16	9	Blue	q	1	1.0441	P	Q	CDPR	NVQZ	rbr	brb	3	2000	1	6	02	9-Feb-16	10	Blue	x	1	1.2376	W	X	WVNC	XBYK	r	b	1	2000	1	6	02	9-Feb-16	11	Blue	q	1	1.0117	H	Q	EFHW	UKQD	rrr	bbb	3	650	1	6	02	9-Feb-16	12	Blue	z	0	1.3837	L	K	PXUL	QWSK	bbrr	rrbb	4	650	1	6	02	9-Feb-16	13	Blue	d	1	1.3941	U	D	BUNX	IDOY	br	rb	2	650	1	6	02	9-Feb-16	14	Blue	s	0	0.8012	T	Z	DEOT	IKXZ	brbr	rbrb	4	650	1	6	02	9-Feb-16	15	Blue	r	0	2.0166	M	R	ZMDP	LRNA	rb	br	2	2000	1	6	02	9-Feb-16	16	Blue	l	0	1.4683	K	B	KGCZ	BFSN	b	r	1	650	1	6	02	9-Feb-16	17	Blue	p	0	3.1101	R	K	CSRY	MPKE	bbb	rrr	3	650	1	6	02	9-Feb-16	18	Blue	t	1	1.1175	M	T	QMDA	CTEO	br	rb	2	2000	1	6	02	9-Feb-16	19	Blue	z	0	0.8566	X	G	NBAX	DOTG	brbb	rbrr	4	2000	1	6	02	9-Feb-16	20	Blue	s	0	3.1333	J	Q	JSZH	QTWN	r	b	1	650	1	6	02	9-Feb-16	21	Blue	p	1	0.5722	U	P	BLZU	QIJP	bbbr	rrrb	4	650	1	6	02	9-Feb-16	22	Blue	a	0	1.6637	A	G	HBAC	MQGX	rbr	brb	3	2000	1	6	02	9-Feb-16	23	Blue	b	1	2.049	B	Z	WBQN	TZDV	rb	br	2	650	1	6	02	9-Feb-16	24	Blue	k	1	0.4578	Q	K	FVSQ	AIHK	brbr	rbrb	4	2000	1	6	02	9-Feb-16	25	Blue	q	1	1.331	V	Q	VECL	QNGB	r	b	1	650	1	6	02	9-Feb-16	26	Blue	y	1	0.676	Y	D	VIJY	UESD	brbb	rbrr	4	650	1	6	02	9-Feb-16	27	Blue	a	0	1.9202	R	V	IRZP	JVQO	rb	br	2	650	1	6	02	9-Feb-16	28	Blue	e	1	1.0753	E	O	PMEJ	ZGOQ	bbb	rrr	3	2000	1	6	02	9-Feb-16	29	Blue	j	0	2.0147	K	J	KFDN	JGMU	b	r	1	650	1	6	02	9-Feb-16	30	Blue	w	0	1.225	N	W	FKNC	GMWE	rbb	brr	3	2000	1	6	02	9-Feb-16	31	Blue	y	1	1.5368	T	Y	CXTB	JGYV	brr	rbb	3	650	1	6	02	9-Feb-16	32	Blue	w	1	1.2782	X	W	XTZA	WUKO	r	b	1	2000	1	6	06	5-Feb-16	1	blue	t	1	1.1939	R	T	nnnR	nnnT	rbbr	brrb	4	2000	1	6	16	5-Feb-16	2	blue	l	1	1.4093	I	L	I	L	r	b	1	2000	1	6	16	5-Feb-16	3	blue	s	1	1.206	Y	S	nY	nS	rr	bb	2	2000	1	6	16	5-Feb-16	4	blue	a	1	1.7026	A	D	nA	nD	bb	rr	2	650	1	6	16	5-Feb-16	5	blue	n	1	1.3187	P	N	P	N	r	b	1	2000	1	6	16	5-Feb-16	6	blue	e	1	1.27	L	E	nnL	nnE	brr	rbb	3	2000	1	6	16	5-Feb-16	7	blue	w	0	3.9602	E	V	nnnE	nnnV	rrrb	bbbr	4	650	1	6	16	5-Feb-16	8	blue	j	1	1.6347	J	I	nnJ	nnI	bbb	rrr	3	650	1	6	16	5-Feb-16	9	blue	d	1	1.7806	D	Q	D	Q	b	r	1	650	1	6	16	5-Feb-16	10	blue	y	0	1.762	X	Q	nX	nQ	rb	br	2	650	1	6	16	5-Feb-16	11	blue	r	1	3.2185	R	L	nnR	nnL	brb	rbr	3	2000	1	6	16	5-Feb-16	12	blue	l	1	1.7258	C	L	nC	nL	rr	bb	2	650	1	6	16	5-Feb-16	13	blue	y	1	1.6209	Y	B	nY	nB	bb	rr	2	650	1	6	16	5-Feb-16	14	blue	a	0	1.4317	L	C	nnL	nnC	rrb	bbr	3	650	1	6	16	5-Feb-16	15	blue	a	1	1.3729	M	A	nnM	nnA	bbr	rrb	3	2000	1	6	16	5-Feb-16	16	blue	e	0	6.4262	A	W	nnnA	nnnW	brrb	rbbr	4	650	1	6	16	5-Feb-16	17	blue	f	1	1.917	F	Y	F	Y	b	r	1	650	1	6	16	5-Feb-16	18	blue	x	1	1.9962	O	X	O	X	r	b	1	650	1	6	16	5-Feb-16	19	blue	p	1	1.3379	U	P	U	P	r	b	1	2000	1	6	16	5-Feb-16	20	blue	i	1	1.4684	I	U	nnnI	nnnU	brbb	rbrr	4	2000	1	6	16	5-Feb-16	21	blue	d	1	1.2617	L	D	nnL	nnD	rrr	bbb	3	2000	1	6	16	5-Feb-16	22	blue	o	1	1.35	Z	O	nnZ	nnO	rrr	bbb	3	650	1	6	16	5-Feb-16	23	blue	a	1	1.5557	L	A	L	A	r	b	1	2000	1	6	16	5-Feb-16	24	blue	l	1	1.4651	L	Q	nL	nQ	bb	rr	2	2000	1	6	16	5-Feb-16	25	blue	w	1	1.1973	D	W	nnnD	nnnW	brbr	rbrb	4	2000	1	6	16	5-Feb-16	26	blue	g	1	1.221	Y	G	nnnY	nnnG	rrrr	bbbb	4	2000	1	6	16	5-Feb-16	27	blue	a	1	1.1987	A	P	nA	nP	bb	rr	2	2000	1	6	16	5-Feb-16	28	blue	q	1	1.3533	O	Q	nO	nQ	rr	bb	2	2000	1	6	16	5-Feb-16	29	blue	q	1	1.1605	Q	D	nnnQ	nnnD	rrrb	bbbr	4	650	1	6	16	5-Feb-16	30	blue	e	1	1.35	E	N	nnnE	nnnN	brrb	rbbr	4	650	1	6	16	5-Feb-16	31	blue	i	1	1.7211	I	O	I	O	b	r	1	650	1	6	16	5-Feb-16	32	blue	k	0	2.2565	J	Y	nnJ	nnY	rrr	bbb	3	650	1	6	16	5-Feb-16	1	Red	x	1	1.6885	X	L	nnX	nnL	rrr	bbb	3	650	1	6	16	5-Feb-16	2	Red	x	1	4.8576	X	F	nnX	nnF	rbr	brb	3	2000	1	6	16	5-Feb-16	3	Red	b	1	1.0126	B	N	nnB	nnN	rrr	bbb	3	650	1	6	16	5-Feb-16	4	Red	i	1	1.0238	I	Q	nnI	nnQ	rrr	bbb	3	2000	1	6	16	5-Feb-16	5	Red	g	1	1.1716	G	K	nnnG	nnnK	rrbr	bbrb	4	650	1	6	16	5-Feb-16	6	Red	o	1	1.1918	V	O	nnnV	nnnO	bbrb	rrbr	4	650	1	6	16	5-Feb-16	7	Red	e	1	1.1732	E	Y	nnE	nnY	bbr	rrb	3	2000	1	6	16	5-Feb-16	8	Red	o	1	1.2785	O	R	nO	nR	br	rb	2	650	1	6	16	5-Feb-16	9	Red	i	1	1.0789	L	I	nnL	nnI	bbb	rrr	3	650	1	6	16	5-Feb-16	10	Red	a	1	1.4291	A	U	A	U	r	b	1	650	1	6	16	5-Feb-16	11	Red	k	1	1.3355	K	O	nK	nO	br	rb	2	2000	1	6	16	5-Feb-16	12	Red	p	1	1.278	H	P	nnH	nnP	rbb	brr	3	650	1	6	16	5-Feb-16	13	Red	c	1	1.168	D	C	nnnD	nnnC	rrrb	bbbr	4	2000	1	6	16	5-Feb-16	14	Red	s	1	1.1469	Z	S	nZ	nS	rb	br	2	650	1	6	16	5-Feb-16	15	Red	w	1	1.1833	H	W	nH	nW	bb	rr	2	650	1	6	16	5-Feb-16	16	Red	j	1	1.2403	K	J	K	J	b	r	1	650	1	6	16	5-Feb-16	17	Red	b	1	1.0698	H	B	nnnH	nnnB	rrrb	bbbr	4	2000	1	6	16	5-Feb-16	18	Red	l	1	1.3012	L	B	nL	nB	rr	bb	2	2000	1	6	16	5-Feb-16	19	Red	f	1	1.1157	F	I	F	I	r	b	1	2000	1	6	16	5-Feb-16	20	Red	z	1	1.053	Z	D	nnnZ	nnnD	bbrr	rrbb	4	2000	1	6	16	5-Feb-16	21	Red	h	1	1.042	Z	H	Z	H	b	r	1	2000	1	6	16	5-Feb-16	22	Red	d	1	1.098	D	A	nD	nA	rr	bb	2	2000	1	6	16	5-Feb-16	23	Red	u	1	1.5939	C	U	nnnC	nnnU	brrb	rbbr	4	650	1	6	16	5-Feb-16	24	Red	n	1	1.1748	N	Z	N	Z	r	b	1	2000	1	6	16	5-Feb-16	25	Red	s	1	1.1596	V	S	nV	nS	rb	br	2	650	1	6	16	5-Feb-16	26	Red	q	1	1.1552	Q	B	Q	B	r	b	1	650	1	6	16	5-Feb-16	27	Red	k	1	1.083	K	Y	nnnK	nnnY	rrbr	bbrb	4	2000	1	6	16	5-Feb-16	28	Red	f	1	1.192	F	R	F	R	r	b	1	2000	1	6	16	5-Feb-16	29	Red	w	1	1.1304	K	W	nK	nW	bb	rr	2	2000	1	6	16	5-Feb-16	30	Red	z	1	1.1142	F	Z	nnF	nnZ	brb	rbr	3	2000	1	6	16	5-Feb-16	31	Red	a	1	1.1255	A	M	A	M	r	b	1	650	1	6	16	5-Feb-16	32	Red	a	1	1.5959	A	B	nnnA	nnnB	brrr	rbbb	4	650	1	6	16	5-Feb-16	1	blue	x	1	1.2212	F	X	F	X	r	b	1	2000	1	6	16	5-Feb-16	2	blue	x	1	1.9027	X	Q	X	Q	b	r	1	2000	1	6	16	5-Feb-16	3	blue	o	1	1.1742	O	F	O	F	b	r	1	2000	1	6	16	5-Feb-16	4	blue	l	1	1.4081	Q	L	nQ	nL	br	rb	2	650	1	6	16	5-Feb-16	5	blue	j	1	0.9824	P	J	nnP	nnJ	rbr	brb	3	2000	1	6	16	5-Feb-16	6	blue	w	1	1.1833	W	Q	W	Q	b	r	1	650	1	6	16	5-Feb-16	7	blue	w	1	1.0354	K	W	nnK	nnW	rbr	brb	3	2000	1	6	16	5-Feb-16	8	blue	l	1	1.1955	L	T	nL	nT	rb	br	2	2000	1	6	16	5-Feb-16	9	blue	u	1	1.1416	J	U	nnJ	nnU	brr	rbb	3	650	1	6	16	5-Feb-16	10	blue	p	1	1.4408	P	I	nP	nI	bb	rr	2	650	1	6	16	5-Feb-16	11	blue	a	1	1.0494	A	W	A	W	b	r	1	650	1	6	16	5-Feb-16	12	blue	o	1	1.0498	O	F	nnO	nnF	rbb	brr	3	650	1	6	16	5-Feb-16	13	blue	c	1	1.154	Z	C	nZ	nC	br	rb	2	2000	1	6	16	5-Feb-16	14	blue	y	1	1.1727	Y	C	Y	C	b	r	1	2000	1	6	16	5-Feb-16	15	blue	t	1	1.0563	T	C	nT	nC	bb	rr	2	2000	1	6	16	5-Feb-16	16	blue	b	1	1.1287	J	B	nnJ	nnB	brr	rbb	3	2000	1	6	16	5-Feb-16	17	blue	l	1	0.9405	R	L	R	L	r	b	1	650	1	6	16	5-Feb-16	18	blue	n	1	1.2825	N	G	nnN	nnG	bbb	rrr	3	2000	1	6	16	5-Feb-16	19	blue	r	1	1.0777	R	M	nnnR	nnnM	rrrb	bbbr	4	2000	1	6	16	5-Feb-16	20	blue	z	1	0.9265	Z	F	nnnZ	nnnF	bbrb	rrbr	4	650	1	6	16	5-Feb-16	21	blue	i	1	1.408	I	D	nI	nD	bb	rr	2	650	1	6	16	5-Feb-16	22	blue	q	1	0.9975	R	Q	nnnR	nnnQ	rbrr	brbb	4	650	1	6	16	5-Feb-16	23	blue	i	1	1.2346	O	I	nnnO	nnnI	brbr	rbrb	4	2000	1	6	16	5-Feb-16	24	blue	r	1	0.9895	R	Z	nnnR	nnnZ	rbbb	brrr	4	650	1	6	16	5-Feb-16	25	blue	n	1	1.148	N	K	nnnN	nnnK	rrrb	bbbr	4	2000	1	6	16	5-Feb-16	26	blue	l	1	1.1995	L	S	nL	nS	rb	br	2	2000	1	6	16	5-Feb-16	27	blue	q	1	1.1803	Q	B	nnQ	nnB	rbb	brr	3	650	1	6	16	5-Feb-16	28	blue	i	1	0.9997	I	C	nnnI	nnnC	rrrb	bbbr	4	650	1	6	16	5-Feb-16	29	blue	a	1	0.935	A	W	nnnA	nnnW	rbbb	brrr	4	2000	1	6	16	5-Feb-16	30	blue	l	1	2.2399	R	L	R	L	r	b	1	650	1	6	16	5-Feb-16	31	blue	l	1	1.3327	L	B	nL	nB	bb	rr	2	650	1	6	16	5-Feb-16	32	blue	e	1	2.6203	S	E	nnS	nnE	bbr	rrb	3	650	1	6	16	5-Feb-16	1	Red	l	1	1.311	T	L	nT	nL	rb	br	2	2000	1	6	16	5-Feb-16	2	Red	p	1	1.1987	P	B	nnnP	nnnB	brbr	rbrb	4	650	1	6	16	5-Feb-16	3	Red	e	1	1.1197	E	V	E	V	r	b	1	2000	1	6	16	5-Feb-16	4	Red	p	1	1.1574	I	P	nnI	nnP	rrb	bbr	3	650	1	6	16	5-Feb-16	5	Red	y	1	0.939	Y	H	nnnY	nnnH	bbrr	rrbb	4	650	1	6	16	5-Feb-16	6	Red	a	1	1.0482	A	F	nA	nF	rr	bb	2	2000	1	6	16	5-Feb-16	7	Red	e	1	1.3896	E	S	nE	nS	rr	bb	2	650	1	6	16	5-Feb-16	8	Red	v	1	1.5447	V	Q	V	Q	r	b	1	650	1	6	16	5-Feb-16	9	Red	j	1	0.9214	C	J	nnC	nnJ	rrb	bbr	3	2000	1	6	16	5-Feb-16	10	Red	m	1	1.145	J	M	nnnJ	nnnM	bbrb	rrbr	4	2000	1	6	16	5-Feb-16	11	Red	b	0	3.6032	C	Q	nC	nQ	br	rb	2	650	1	6	16	5-Feb-16	12	Red	k	1	1.0185	K	D	nnK	nnD	rrr	bbb	3	650	1	6	16	5-Feb-16	13	Red	d	1	1.2555	D	Q	nnnD	nnnQ	rrbr	bbrb	4	2000	1	6	16	5-Feb-16	14	Red	e	1	1.3833	Q	E	Q	E	b	r	1	650	1	6	16	5-Feb-16	15	Red	s	1	1.9879	E	S	nnE	nnS	rrb	bbr	3	650	1	6	16	5-Feb-16	16	Red	r	1	2.0424	O	R	nO	nR	rb	br	2	2000	1	6	16	5-Feb-16	17	Red	i	1	1.193	I	K	nnI	nnK	bbr	rrb	3	2000	1	6	16	5-Feb-16	18	Red	y	1	1.1871	Y	I	nY	nI	rr	bb	2	650	1	6	16	5-Feb-16	19	Red	b	1	1.1564	B	A	B	A	r	b	1	650	1	6	16	5-Feb-16	20	Red	y	1	1.1354	Y	T	Y	T	r	b	1	2000	1	6	16	5-Feb-16	21	Red	z	1	1.3025	B	Z	nnB	nnZ	rrb	bbr	3	2000	1	6	16	5-Feb-16	22	Red	q	1	1.275	F	Q	F	Q	b	r	1	2000	1	6	16	5-Feb-16	23	Red	y	1	1.1896	R	Y	nnnR	nnnY	bbbb	rrrr	4	2000	1	6	16	5-Feb-16	24	Red	j	1	0.9678	F	J	nF	nJ	bb	rr	2	650	1	6	16	5-Feb-16	25	Red	n	1	1.1532	Q	N	Q	N	b	r	1	2000	1	6	16	5-Feb-16	26	Red	u	1	0.9921	U	Y	nnnU	nnnY	bbbr	rrrb	4	650	1	6	16	5-Feb-16	27	Red	k	1	0.8113	K	I	nnnK	nnnI	rbrr	brbb	4	650	1	6	16	5-Feb-16	28	Red	v	1	1.0748	M	V	nM	nV	bb	rr	2	2000	1	6	16	5-Feb-16	29	Red	l	1	1.3108	L	M	nnnL	nnnM	rrrr	bbbb	4	2000	1	6	16	5-Feb-16	30	Red	s	1	1.1161	S	J	nnS	nnJ	rbr	brb	3	650	1	6	16	5-Feb-16	31	Red	e	1	1.5614	E	X	E	X	r	b	1	650	1	6	16	5-Feb-16	32	Red	s	1	1.144	R	S	nnR	nnS	rbb	brr	3	2000	1	6	16	5-Feb-16	1	blue	u	1	1.4129	U	W	UXKJ	WQLD	b	r	1	650	1	6	06	5-Feb-16	2	blue	j	1	1.1356	H	J	LHEG	MJSP	rr	bb	2	2000	1	6	06	5-Feb-16	3	blue	d	1	1.2413	Q	D	QLPX	DRWZ	r	b	1	2000	1	6	06	5-Feb-16	4	blue	m	1	1.1698	Z	M	ZWNH	MPTV	r	b	1	2000	1	6	06	5-Feb-16	5	blue	n	1	1.1641	Y	N	YLVZ	NOUC	r	b	1	2000	1	6	06	5-Feb-16	6	blue	h	1	1.2593	H	J	WUZH	ICKJ	brbb	rbrr	4	2000	1	6	06	5-Feb-16	7	blue	k	1	1.2156	K	E	DRUK	YLIE	rbbb	brrr	4	2000	1	6	06	5-Feb-16	8	blue	q	0	1.4311	U	O	PYNU	JEMO	rrrr	bbbb	4	2000	1	6	06	5-Feb-16	9	blue	e	1	1.2803	E	K	SEHQ	IKYJ	rb	br	2	2000	1	6	06	5-Feb-16	10	blue	j	1	2.9299	N	J	HWNZ	SQJT	rbr	brb	3	650	1	6	06	5-Feb-16	11	blue	r	1	1.2538	R	H	RTLF	HBQM	b	r	1	650	1	6	06	5-Feb-16	12	blue	u	1	1.1315	V	U	ZVFT	SUAK	rr	bb	2	650	1	6	06	5-Feb-16	13	blue	t	1	1.2116	T	Q	DHTZ	EBQJ	rrb	bbr	3	2000	1	6	06	5-Feb-16	14	blue	n	1	1.0372	N	D	WJNO	XSDI	brb	rbr	3	650	1	6	06	5-Feb-16	15	blue	z	1	1.181	M	Z	TMUI	KZDB	br	rb	2	650	1	6	06	5-Feb-16	16	blue	p	1	1.4155	P	W	PSIK	WHMF	b	r	1	2000	1	6	06	5-Feb-16	17	blue	p	1	1.2282	P	I	ZBPC	DQIJ	brb	rbr	3	2000	1	6	06	5-Feb-16	18	blue	t	1	1.1199	T	G	RBTE	QDGJ	rrb	bbr	3	2000	1	6	06	5-Feb-16	19	blue	r	1	1.151	U	R	NAUF	JBRE	brr	rbb	3	2000	1	6	06	5-Feb-16	20	blue	q	1	1.1331	Q	I	LEQZ	CDIU	bbb	rrr	3	650	1	6	06	5-Feb-16	21	blue	d	1	0.9931	H	D	EHZR	BDUC	br	rb	2	2000	1	6	06	5-Feb-16	22	blue	h	1	1.1461	H	Q	YHWO	TQPE	bb	rr	2	650	1	6	06	5-Feb-16	23	blue	k	1	1.0239	H	K	TUPH	MJOK	brrr	rbbb	4	650	1	6	06	5-Feb-16	24	blue	b	1	1.1365	Y	B	DGYN	MEBU	rrr	bbb	3	650	1	6	06	5-Feb-16	25	blue	k	1	1.0644	Y	K	GMZY	JFSK	bbbr	rrrb	4	650	1	6	06	5-Feb-16	26	blue	a	1	1.4126	E	A	EKMQ	ATFZ	r	b	1	650	1	6	06	5-Feb-16	27	blue	m	0	1.5459	X	B	FKAX	LYJB	bbbr	rrrb	4	650	1	6	06	5-Feb-16	28	blue	m	1	1.6714	U	M	ULSC	MFQW	r	b	1	650	1	6	06	5-Feb-16	29	blue	i	1	1.1911	I	T	OICY	XTKW	rb	br	2	650	1	6	06	5-Feb-16	30	blue	w	0	1.2317	D	U	ZXBD	QTWU	rbbr	brrb	4	2000	1	6	06	5-Feb-16	31	blue	e	1	1.2642	L	E	BLQA	OEUM	rr	bb	2	2000	1	6	06	5-Feb-16	32	blue	s	1	1.715	S	U	XDIS	TLAU	rbbb	brrr	4	650	1	6	06	5-Feb-16	1	Red	y	1	1.1882	S	Y	QCNS	JZMY	rrbb	bbrr	4	650	1	6	06	5-Feb-16	2	Red	i	1	6.5663	B	I	JBAE	VIRN	rb	br	2	2000	1	6	06	5-Feb-16	3	Red	w	0	1.2139	X	J	HVXE	AYJN	bbr	rrb	3	650	1	6	06	5-Feb-16	4	Red	n	1	1.4869	N	T	KNZY	QTHO	rr	bb	2	2000	1	6	06	5-Feb-16	5	Red	w	0	3.8252	Y	S	UNPY	ZOMS	bbrr	rrbb	4	650	1	6	06	5-Feb-16	6	Red	x	1	1.184	H	X	JHGK	LXIS	rb	br	2	650	1	6	06	5-Feb-16	7	Red	n	1	2.0248	Y	N	YQDW	NPGJ	b	r	1	650	1	6	06	5-Feb-16	8	Red	u	1	1.6395	U	S	XKUE	ZRSY	brr	rbb	3	650	1	6	06	5-Feb-16	9	Red	p	1	2.9203	R	P	RAZV	PUKQ	b	r	1	650	1	6	06	5-Feb-16	10	Red	k	1	1.2619	U	K	UQEV	KYOD	b	r	1	2000	1	6	06	5-Feb-16	11	Red	m	1	1.2282	M	K	ZMSF	LKCH	rr	bb	2	650	1	6	06	5-Feb-16	12	Red	q	1	1.1441	C	Q	JSZC	NMTQ	brrb	rbbr	4	650	1	6	06	5-Feb-16	13	Red	s	1	1.212	P	S	ZPXB	JSEM	bb	rr	2	650	1	6	06	5-Feb-16	14	Red	r	1	1.1155	D	R	DTZM	RNGU	b	r	1	2000	1	6	06	5-Feb-16	15	Red	k	1	1.3808	D	K	QLDH	JXKN	bbb	rrr	3	2000	1	6	06	5-Feb-16	16	Red	t	1	1.1472	C	T	SKLC	YJDT	brbb	rbrr	4	2000	1	6	06	5-Feb-16	17	Red	e	1	1.2723	D	E	SDAK	GEUR	rb	br	2	2000	1	6	06	5-Feb-16	18	Red	w	1	1.1051	W	A	DKWL	XVAY	rbr	brb	3	650	1	6	06	5-Feb-16	19	Red	s	1	1.5076	M	S	MPYB	SRIQ	b	r	1	650	1	6	06	5-Feb-16	20	Red	h	1	1.0523	Y	H	CWYP	OQHB	bbb	rrr	3	650	1	6	06	5-Feb-16	21	Red	x	1	1.1866	I	X	IEGJ	XKOP	b	r	1	2000	1	6	06	5-Feb-16	22	Red	t	1	1.3673	U	T	AMUN	KITH	bbb	rrr	3	2000	1	6	06	5-Feb-16	23	Red	p	1	1.2679	P	A	PIOJ	AXMC	r	b	1	2000	1	6	06	5-Feb-16	24	Red	a	1	1.1654	Q	A	SIQL	CFAG	rrb	bbr	3	2000	1	6	06	5-Feb-16	25	Red	q	1	2.0639	Q	A	XQPW	IAOF	br	rb	2	650	1	6	06	5-Feb-16	26	Red	j	1	1.1777	O	J	KHCO	GRDJ	rbrb	brbr	4	2000	1	6	06	5-Feb-16	27	Red	l	1	1.2575	L	X	LVDW	XPKZ	r	b	1	650	1	6	06	5-Feb-16	28	Red	r	1	1.2742	R	P	ORKF	XPLA	br	rb	2	2000	1	6	06	5-Feb-16	29	Red	x	1	1.1254	E	X	TMWE	KPNX	brbb	rbrr	4	2000	1	6	06	5-Feb-16	30	Red	m	1	1.3515	I	M	VWLI	GYTM	rrbb	bbrr	4	2000	1	6	06	5-Feb-16	31	Red	g	1	1.2068	G	O	CLGB	TQOX	rbr	brb	3	2000	1	6	06	5-Feb-16	32	Red	x	1	2.3388	O	X	IHMO	SDCX	brrb	rbbr	4	650	1	6	06	5-Feb-16	1	blue	b	1	1.2347	B	K	BGWJ	KANZ	b	r	1	650	1	6	06	5-Feb-16	2	blue	e	1	1.309	E	C	BEQK	WCHY	rb	br	2	2000	1	6	06	5-Feb-16	3	blue	l	1	1.1579	E	L	WIME	GRKL	rbbr	brrb	4	650	1	6	06	5-Feb-16	4	blue	d	1	1.0517	D	V	NKID	BOHV	rrrb	bbbr	4	650	1	6	06	5-Feb-16	5	blue	w	0	2.6175	X	T	PXUW	KTBN	bb	rr	2	2000	1	6	06	5-Feb-16	6	blue	y	1	1.2	Y	C	MBHY	IFLC	brrb	rbbr	4	2000	1	6	06	5-Feb-16	7	blue	z	1	1.1927	J	Z	OJXR	KZVH	br	rb	2	650	1	6	06	5-Feb-16	8	blue	p	1	1.2183	P	H	YPDC	EHFA	rb	br	2	650	1	6	06	5-Feb-16	9	blue	g	1	1.0228	H	G	JCBH	FOTG	brbr	rbrb	4	650	1	6	06	5-Feb-16	10	blue	g	1	1.6209	V	G	VBAP	GWXU	r	b	1	650	1	6	06	5-Feb-16	11	blue	y	1	1.3206	Y	C	ZYQT	XCSU	rb	br	2	650	1	6	06	5-Feb-16	12	blue	p	1	1.104	P	G	QFPI	SLGE	rrb	bbr	3	2000	1	6	06	5-Feb-16	13	blue	a	1	1.0533	U	A	WJUR	NKAP	bbr	rrb	3	650	1	6	06	5-Feb-16	14	blue	q	1	1.175	D	Q	RBDS	WVQF	brr	rbb	3	650	1	6	06	5-Feb-16	15	blue	n	1	1.0851	N	B	RUHN	LXYB	rrrb	bbbr	4	2000	1	6	06	5-Feb-16	16	blue	n	1	1.0384	K	N	FPKR	OINT	brr	rbb	3	2000	1	6	06	5-Feb-16	17	blue	l	1	1.0278	X	L	XBUP	LZER	r	b	1	2000	1	6	06	5-Feb-16	18	blue	g	1	1.1081	G	T	JYGC	SPTO	rrb	bbr	3	650	1	6	06	5-Feb-16	19	blue	u	1	2.1152	N	U	BAVN	LQEU	brbr	rbrb	4	650	1	6	06	5-Feb-16	20	blue	r	1	1.0523	G	R	GTOH	RSIM	r	b	1	650	1	6	06	5-Feb-16	21	blue	e	1	1.1965	X	E	XPGM	ENWS	r	b	1	2000	1	6	06	5-Feb-16	22	blue	f	1	1.0839	P	F	PBHN	FAJS	r	b	1	2000	1	6	06	5-Feb-16	23	blue	m	1	1.083	M	R	TYMF	AVRB	bbb	rrr	3	650	1	6	06	5-Feb-16	24	blue	i	1	1.2412	I	Q	IESK	QAGL	b	r	1	650	1	6	06	5-Feb-16	25	blue	y	1	1.1394	Y	U	QGYR	JLUI	brb	rbr	3	2000	1	6	06	5-Feb-16	26	blue	q	1	0.9852	Q	S	GKQN	RPSO	rbb	brr	3	2000	1	6	06	5-Feb-16	27	blue	e	1	1.3879	N	E	HNSV	KECG	br	rb	2	2000	1	6	06	5-Feb-16	28	blue	k	1	1.1686	I	K	HIMY	OKEC	br	rb	2	2000	1	6	06	5-Feb-16	29	blue	q	1	1.0146	Q	F	SKUQ	RCEF	brrb	rbbr	4	2000	1	6	06	5-Feb-16	30	blue	o	1	1.3189	O	F	OLVC	FKUG	b	r	1	2000	1	6	06	5-Feb-16	31	blue	j	1	1.1088	J	H	CJUL	THIZ	bb	rr	2	650	1	6	06	5-Feb-16	32	blue	c	1	1.0226	M	C	NKEM	SJXC	rrbr	bbrb	4	2000	1	6	06	5-Feb-16	1	Red	m	1	1.1563	M	Q	MKDL	QPAH	r	b	1	2000	1	6	06	5-Feb-16	2	Red	h	1	1.0095	G	H	UWLG	IATH	rbrb	brbr	4	650	1	6	06	5-Feb-16	3	Red	q	1	1.0598	Q	V	PGQB	JDVY	bbr	rrb	3	650	1	6	06	5-Feb-16	4	Red	f	1	1.0789	F	M	VJDF	SCBM	bbrr	rrbb	4	2000	1	6	06	5-Feb-16	5	Red	y	0	1.3081	B	V	KBMF	WVDT	bb	rr	2	650	1	6	06	5-Feb-16	6	Red	z	1	1.1811	S	Z	PCSX	ALZV	rrb	bbr	3	2000	1	6	06	5-Feb-16	7	Red	g	1	1.0808	G	W	ZDGF	XKWT	rrr	bbb	3	650	1	6	06	5-Feb-16	8	Red	q	1	1.1794	U	Q	XGNU	HFRQ	rrrb	bbbr	4	2000	1	6	06	5-Feb-16	9	Red	o	1	1.1431	F	O	CDFU	SIOZ	rbb	brr	3	2000	1	6	06	5-Feb-16	10	Red	i	1	1.0321	J	I	NVSJ	OUQI	bbbb	rrrr	4	2000	1	6	06	5-Feb-16	11	Red	s	1	1.3362	S	B	SLVG	BMWN	r	b	1	2000	1	6	06	5-Feb-16	12	Red	i	1	1.1795	I	Q	PICL	TQVE	br	rb	2	650	1	6	06	5-Feb-16	13	Red	d	1	0.9816	D	E	DPFK	EQZW	r	b	1	2000	1	6	06	5-Feb-16	14	Red	o	1	1.3706	A	O	KRAS	HEOV	bbb	rrr	3	2000	1	6	06	5-Feb-16	15	Red	i	1	1.6602	I	D	IEAX	DQLM	r	b	1	650	1	6	06	5-Feb-16	16	Red	q	1	1.8533	Q	N	AQPW	KNIC	rr	bb	2	650	1	6	06	5-Feb-16	17	Red	c	1	1.1235	W	C	RQKW	YNSC	bbrb	rrbr	4	650	1	6	06	5-Feb-16	18	Red	v	1	1.1772	D	V	CIDN	YLVF	brb	rbr	3	650	1	6	06	5-Feb-16	19	Red	q	1	1.172	Q	R	HQXF	ORZU	br	rb	2	650	1	6	06	5-Feb-16	20	Red	h	1	0.9601	H	W	MGUH	TBVW	bbbr	rrrb	4	650	1	6	06	5-Feb-16	21	Red	j	1	0.8543	J	N	PWEJ	ZOCN	bbbr	rrrb	4	650	1	6	06	5-Feb-16	22	Red	i	1	1.3192	Q	I	UNQS	LAIZ	rbb	brr	3	2000	1	6	06	5-Feb-16	23	Red	u	1	1.123	U	C	XUZV	LCSB	br	rb	2	2000	1	6	06	5-Feb-16	24	Red	v	1	1.0164	Y	V	KYJP	EVTO	bb	rr	2	2000	1	6	06	5-Feb-16	25	Red	z	1	1.1371	Z	Y	ZSBH	YPTE	r	b	1	650	1	6	06	5-Feb-16	26	Red	e	1	1.4744	E	B	EGWZ	BAFY	r	b	1	650	1	6	06	5-Feb-16	27	Red	u	1	1.244	L	U	ZLWB	AUME	bb	rr	2	2000	1	6	06	5-Feb-16	28	Red	j	1	1.2508	J	F	JOPM	FUEB	r	b	1	650	1	6	06	5-Feb-16	29	Red	c	1	1.0238	K	C	FEVK	LZUC	brrb	rbbr	4	2000	1	6	06	5-Feb-16	30	Red	j	1	1.273	J	Z	MJPY	DZAB	br	rb	2	2000	1	6	06	5-Feb-16	31	Red	s	1	1.1426	S	L	SBKV	LYWM	r	b	1	2000	1	6	06	5-Feb-16	32	Red	m	1	1.0191	M	X	ZNMT	FOXQ	rrr	bbb	3	650	1	6	03	9-Feb-16	1	Blue	y	1	0.9042	N	Y	FONW	UTYE	brr	rbb	3	2000	1	6	03	9-Feb-16	2	Blue	j	1	0.7342	J	D	WJVO	LDBI	rb	br	2	2000	1	6	03	9-Feb-16	3	Blue	d	1	1.1536	D	R	ZYBD	OFSR	brbb	rbrr	4	650	1	6	03	9-Feb-16	4	Blue	w	0	1.3349	L	S	UVHL	BITS	bbbb	rrrr	4	650	1	6	03	9-Feb-16	5	Blue	x	1	1.4997	Y	X	YQTB	XRCF	r	b	1	650	1	6	03	9-Feb-16	6	Blue	q	0	2.1967	J	K	HJEQ	VKBL	br	rb	2	650	1	6	03	9-Feb-16	7	Blue	v	1	1.0492	B	V	BTSK	VEID	r	b	1	650	1	6	03	9-Feb-16	8	Blue	v	0	0.806	H	X	JZDH	QYKX	bbbb	rrrr	4	2000	1	6	03	9-Feb-16	9	Blue	m	1	0.8843	B	M	FBSO	PMWL	br	rb	2	2000	1	6	03	9-Feb-16	10	Blue	s	1	1.53	S	K	SXMN	KPDI	b	r	1	2000	1	6	03	9-Feb-16	11	Blue	b	1	0.8663	I	B	YKLI	EDCB	rbrr	brbb	4	650	1	6	03	9-Feb-16	12	Blue	w	1	2.121	W	G	NWVP	XGOB	rb	br	2	650	1	6	03	9-Feb-16	13	Blue	j	1	0.8343	R	J	ARVF	BJSM	br	rb	2	2000	1	6	03	9-Feb-16	14	Blue	r	1	1.0967	I	R	IHMQ	RFKN	r	b	1	2000	1	6	03	9-Feb-16	15	Blue	v	0	1.0163	W	Q	NGWY	ETQL	rbb	brr	3	2000	1	6	03	9-Feb-16	16	Blue	d	0	1.2211	J	D	CSKJ	NOAD	rrrb	bbbr	4	2000	1	6	03	9-Feb-16	17	Blue	c	1	1.4208	B	C	BGSY	CVKD	r	b	1	650	1	6	03	9-Feb-16	18	Blue	m	0	0.97	T	A	VKZT	LXPA	rbrb	brbr	4	650	1	6	03	9-Feb-16	19	Blue	z	1	1.4196	Z	K	ZMWI	KHRJ	b	r	1	2000	1	6	03	9-Feb-16	20	Blue	c	1	1.1845	C	G	MEVC	KBYG	brbb	rbrr	4	2000	1	6	03	9-Feb-16	21	Blue	s	1	1.0766	S	Z	NSWH	DZRO	bb	rr	2	2000	1	6	03	9-Feb-16	22	Blue	q	1	1.3457	Y	Q	XYJD	GQEI	rr	bb	2	650	1	6	03	9-Feb-16	23	Blue	z	0	1.1434	R	E	XFRG	KZED	brr	rbb	3	650	1	6	03	9-Feb-16	24	Blue	f	1	0.9819	B	F	ISBV	CYFU	rrr	bbb	3	650	1	6	03	9-Feb-16	25	Blue	m	0	0.8247	O	I	MQOD	XHIY	rrb	bbr	3	2000	1	6	03	9-Feb-16	26	Blue	z	1	1.1525	Z	Q	JWZA	LKQI	rbb	brr	3	650	1	6	03	9-Feb-16	27	Blue	y	1	1.1399	U	Y	UKSM	YBQD	r	b	1	650	1	6	03	9-Feb-16	28	Blue	e	0	1.7774	I	L	COID	EHLR	rrb	bbr	3	650	1	6	03	9-Feb-16	29	Blue	d	1	2.1956	D	I	HQMD	ATWI	rbbb	brrr	4	2000	1	6	03	9-Feb-16	30	Blue	k	1	1.1846	K	T	KBLC	TADF	b	r	1	2000	1	6	03	9-Feb-16	31	Blue	d	1	0.9104	D	G	NKDF	CZGQ	rrb	bbr	3	2000	1	6	03	9-Feb-16	32	Blue	b	0	1.0586	L	R	NLHC	IRJQ	rb	br	2	650	1	6	03	9-Feb-16	1	Red	g	1	1.1153	R	G	SRHO	MGPZ	bb	rr	2	650	1	6	03	9-Feb-16	2	Red	h	0	0.9119	Y	H	YDOP	HUWR	r	b	1	2000	1	6	03	9-Feb-16	3	Red	x	1	0.9171	H	X	RJHP	AQXI	bbb	rrr	3	2000	1	6	03	9-Feb-16	4	Red	u	1	1.2483	F	U	FVPY	ULSA	b	r	1	2000	1	6	03	9-Feb-16	5	Red	v	1	0.7736	M	V	ELBM	KNAV	rbrb	brbr	4	2000	1	6	03	9-Feb-16	6	Red	k	1	1.5162	J	K	JYEU	KBOM	b	r	1	650	1	6	03	9-Feb-16	7	Red	v	1	1.4124	P	V	NPET	IVXB	rb	br	2	2000	1	6	03	9-Feb-16	8	Red	n	1	1.0941	N	H	NCKM	HXGV	r	b	1	2000	1	6	03	9-Feb-16	9	Red	m	1	0.8984	E	M	EYJU	MXBW	b	r	1	2000	1	6	03	9-Feb-16	10	Red	p	1	1.1678	N	P	XNTB	UPEQ	rb	br	2	2000	1	6	03	9-Feb-16	11	Red	o	1	1.0378	T	O	KDBT	ACXO	rbbb	brrr	4	650	1	6	03	9-Feb-16	12	Red	z	1	1.3954	Y	Z	YSFW	ZBLO	b	r	1	650	1	6	03	9-Feb-16	13	Red	y	1	1.0946	Y	X	YLUG	XQKM	r	b	1	650	1	6	03	9-Feb-16	14	Red	w	1	1.1926	W	L	BACW	YKFL	bbrr	rrbb	4	2000	1	6	03	9-Feb-16	15	Red	l	1	0.9715	L	T	VUEL	SGRT	rrrr	bbbb	4	650	1	6	03	9-Feb-16	16	Red	b	1	1.0394	C	B	ZVCQ	TDBH	rrb	bbr	3	650	1	6	03	9-Feb-16	17	Red	c	1	1.4449	B	C	BVPU	CYXQ	b	r	1	650	1	6	03	9-Feb-16	18	Red	n	1	0.8404	M	N	RUMT	EHNQ	brb	rbr	3	2000	1	6	03	9-Feb-16	19	Red	b	0	1.0885	Q	C	BQSG	KCIM	br	rb	2	2000	1	6	03	9-Feb-16	20	Red	a	1	1.1127	U	A	ICUH	RXAK	rrb	bbr	3	2000	1	6	03	9-Feb-16	21	Red	k	1	0.7909	K	S	CGIK	ZEMS	rbbr	brrb	4	650	1	6	03	9-Feb-16	22	Red	p	1	0.7486	S	P	IUOS	LKZP	brrb	rbbr	4	2000	1	6	03	9-Feb-16	23	Red	n	0	0.9605	N	X	PLNW	FQXI	rbb	brr	3	2000	1	6	03	9-Feb-16	24	Red	m	1	1.0992	A	M	FPAN	CBML	bbb	rrr	3	650	1	6	03	9-Feb-16	25	Red	m	1	1.0965	I	M	XILD	WMEA	bb	rr	2	650	1	6	03	9-Feb-16	26	Red	w	1	1.656	W	J	OEAW	CLVJ	rbbr	brrb	4	650	1	6	03	9-Feb-16	27	Red	i	1	0.7787	N	I	BNDK	TISM	bb	rr	2	2000	1	6	03	9-Feb-16	28	Red	t	0	1.3169	N	P	SXNL	EVPQ	rrr	bbb	3	650	1	6	03	9-Feb-16	29	Red	e	1	1.0916	Y	E	TJYX	FIEP	rrb	bbr	3	650	1	6	03	9-Feb-16	30	Red	i	1	0.8949	I	W	JTGI	VQFW	rrbr	bbrb	4	2000	1	6	03	9-Feb-16	31	Red	k	1	1.0817	I	K	EISP	OKYZ	bb	rr	2	650	1	6	03	9-Feb-16	32	Red	d	1	1.1124	V	D	XVRM	PDGI	rb	br	2	650	1	6	03	9-Feb-16	1	Blue	i	1	0.9115	Z	I	LZUF	BIQP	rr	bb	2	650	1	6	03	9-Feb-16	2	Blue	b	1	0.2272	B	N	BKLO	NDHU	b	r	1	2000	1	6	03	9-Feb-16	3	Blue	r	1	0.9592	N	R	VNKZ	GRLB	br	rb	2	650	1	6	03	9-Feb-16	4	Blue	r	1	0.9226	R	J	NFRE	BUJQ	rbb	brr	3	650	1	6	03	9-Feb-16	5	Blue	r	1	0.8216	T	R	QTVZ	CRKP	br	rb	2	650	1	6	03	9-Feb-16	6	Blue	d	1	0.8459	D	J	KIDS	WVJO	bbb	rrr	3	2000	1	6	03	9-Feb-16	7	Blue	g	0	5.0378	Y	V	FDYM	AJVR	rbb	brr	3	650	1	6	03	9-Feb-16	8	Blue	n	1	1.3531	N	J	NOLP	JYEI	b	r	1	650	1	6	03	9-Feb-16	9	Blue	c	1	0.8455	C	U	CJGR	UVFT	b	r	1	2000	1	6	03	9-Feb-16	10	Blue	g	1	1.0428	G	E	SQGO	UDEI	brb	rbr	3	650	1	6	03	9-Feb-16	11	Blue	s	1	1.1809	S	O	IFSC	PJOA	brb	rbr	3	2000	1	6	03	9-Feb-16	12	Blue	u	1	3.3835	J	U	JDTB	UXWN	r	b	1	650	1	6	03	9-Feb-16	13	Blue	s	1	4.0667	S	E	SWPO	EAML	b	r	1	650	1	6	03	9-Feb-16	14	Blue	e	1	1.0688	O	E	ZBQO	KVSE	rbbr	brrb	4	650	1	6	03	9-Feb-16	15	Blue	p	1	0.8317	P	U	VCZP	RWYU	rbbb	brrr	4	2000	1	6	03	9-Feb-16	16	Blue	d	1	1.3013	S	D	RSLV	KDHX	rr	bb	2	2000	1	6	03	9-Feb-16	17	Blue	j	1	1.2449	J	N	JRCZ	NVGU	b	r	1	2000	1	6	03	9-Feb-16	18	Blue	w	1	1.213	K	W	EKXI	CWQP	rr	bb	2	2000	1	6	03	9-Feb-16	19	Blue	y	1	0.9342	Y	N	YVMO	NXIQ	b	r	1	2000	1	6	03	9-Feb-16	20	Blue	p	1	1.4065	P	F	SLXP	HYRF	bbbb	rrrr	4	2000	1	6	03	9-Feb-16	21	Blue	i	1	1.0553	I	A	UIVC	HAYT	rb	br	2	650	1	6	03	9-Feb-16	22	Blue	y	1	0.961	H	Y	MIUH	CKFY	bbrr	rrbb	4	650	1	6	03	9-Feb-16	23	Blue	d	1	1.5739	D	B	IGDE	ANBR	rbb	brr	3	2000	1	6	03	9-Feb-16	24	Blue	l	1	1.333	M	L	ZJMU	XHLE	rbr	brb	3	2000	1	6	03	9-Feb-16	25	Blue	v	1	1.382	T	V	IKMT	YWXV	bbrr	rrbb	4	2000	1	6	03	9-Feb-16	26	Blue	f	1	1.2351	S	F	ASZI	HFKV	rr	bb	2	2000	1	6	03	9-Feb-16	27	Blue	j	1	0.7003	J	L	PJKD	ELZS	rb	br	2	2000	1	6	03	9-Feb-16	28	Blue	c	1	1.1413	U	C	HYWU	XNQC	rbrr	brbb	4	2000	1	6	03	9-Feb-16	29	Blue	g	0	1.8163	X	N	PEXD	JANH	brr	rbb	3	650	1	6	03	9-Feb-16	30	Blue	r	0	0.9439	A	Z	PXDA	WVEZ	bbrb	rrbr	4	650	1	6	03	9-Feb-16	31	Blue	q	1	1.2379	M	Q	VIFM	HCBQ	bbbr	rrrb	4	650	1	6	03	9-Feb-16	32	Blue	y	1	1.0195	Y	Z	YLDK	ZOXB	b	r	1	650	1	6	03	9-Feb-16	1	Red	i	1	0.7684	O	I	HUGO	XWCI	brrb	rbbr	4	2000	1	6	03	9-Feb-16	2	Red	d	1	0.885	N	D	RWCN	PJQD	bbrb	rrbr	4	2000	1	6	03	9-Feb-16	3	Red	y	1	0.98	Q	Y	CQIH	TYKG	rb	br	2	2000	1	6	03	9-Feb-16	4	Red	k	1	0.8879	R	K	MERC	BVKH	brb	rbr	3	2000	1	6	03	9-Feb-16	5	Red	i	0	1.0282	H	I	HRDZ	IXTY	r	b	1	2000	1	6	03	9-Feb-16	6	Red	p	1	0.9336	P	F	MSPT	RIFN	rbr	brb	3	2000	1	6	03	9-Feb-16	7	Red	f	1	2.4731	F	U	FDLQ	UZJG	r	b	1	650	1	6	03	9-Feb-16	8	Red	d	1	1.1088	D	J	WDQU	GJLY	rr	bb	2	650	1	6	03	9-Feb-16	9	Red	j	1	0.8995	G	J	NXGA	TPJL	rbb	brr	3	650	1	6	03	9-Feb-16	10	Red	x	1	1.7052	E	X	FWEN	LUXB	bbb	rrr	3	650	1	6	03	9-Feb-16	11	Red	m	0	1.2882	C	A	CTSU	AJLH	r	b	1	2000	1	6	03	9-Feb-16	12	Red	d	0	0.8993	K	V	ONDK	JZFV	rrrr	bbbb	4	2000	1	6	03	9-Feb-16	13	Red	g	0	1.6905	H	E	ZCNH	XPYE	rrrb	bbbr	4	650	1	6	03	9-Feb-16	14	Red	x	0	1.4034	C	Z	ECLF	QZGV	bb	rr	2	650	1	6	03	9-Feb-16	15	Red	p	1	1.4079	M	P	GDMS	YCPW	rbb	brr	3	2000	1	6	03	9-Feb-16	16	Red	w	1	1.6371	N	W	ERGN	XBJW	bbbb	rrrr	4	650	1	6	03	9-Feb-16	17	Red	q	1	1.038	Q	C	QFZB	CGUI	r	b	1	2000	1	6	03	9-Feb-16	18	Red	r	0	1.2673	Y	I	EFCY	XMOI	brrb	rbbr	4	2000	1	6	03	9-Feb-16	19	Red	v	1	1.1009	F	V	SAFO	NRVT	rrb	bbr	3	2000	1	6	03	9-Feb-16	20	Red	q	0	1.3227	H	L	NHWR	MLGO	rr	bb	2	650	1	6	03	9-Feb-16	21	Red	m	0	1.6219	W	J	WFXO	JVPY	b	r	1	650	1	6	03	9-Feb-16	22	Red	s	0	2.8964	S	O	SHJP	OKQN	b	r	1	650	1	6	03	9-Feb-16	23	Red	r	0	1.0883	P	H	WFPL	MAHR	bbb	rrr	3	650	1	6	03	9-Feb-16	24	Red	c	1	1.2133	S	C	VSJF	UCEM	bb	rr	2	2000	1	6	03	9-Feb-16	25	Red	o	0	1.5222	I	W	HNOI	MAYW	rrbb	bbrr	4	650	1	6	03	9-Feb-16	26	Red	p	1	1.1316	Z	P	EROZ	VHAP	rbbb	brrr	4	650	1	6	03	9-Feb-16	27	Red	q	0	1.7592	B	X	ABYU	IXRQ	br	rb	2	650	1	6	03	9-Feb-16	28	Red	b	1	1.0121	B	Q	BTFO	QLVZ	r	b	1	2000	1	6	03	9-Feb-16	29	Red	l	1	0.9811	E	L	SENO	CLWY	bb	rr	2	2000	1	6	03	9-Feb-16	30	Red	y	0	1.0314	A	W	ZLAO	GSWV	rbr	brb	3	650	1	6	03	9-Feb-16	31	Red	s	0	2.3836	H	K	HCQJ	KLRY	b	r	1	650	1	6	03	9-Feb-16	32	Red	k	1	0.8723	K	V	OKPM	GVFE	rr	bb	2	2000	1	6	03	9-Feb-16	1	Blue	p	1	0.9014	L	P	nL	nP	br	rb	2	650	1	6	13	9-Feb-16	2	Blue	i	1	0.7417	I	T	nnnI	nnnT	rbrb	brbr	4	650	1	6	13	9-Feb-16	3	Blue	l	1	0.9596	L	M	nL	nM	rb	br	2	650	1	6	13	9-Feb-16	4	Blue	x	1	0.9355	X	N	X	N	b	r	1	650	1	6	13	9-Feb-16	5	Blue	d	1	1.3152	W	D	nW	nD	rr	bb	2	2000	1	6	13	9-Feb-16	6	Blue	z	1	1.3258	R	Z	nnnR	nnnZ	rrrr	bbbb	4	2000	1	6	13	9-Feb-16	7	Blue	d	0	1.3304	U	V	U	V	r	b	1	2000	1	6	13	9-Feb-16	8	Blue	q	0	0.9218	H	A	nnH	nnA	bbb	rrr	3	2000	1	6	13	9-Feb-16	9	Blue	t	1	1.0621	T	C	nT	nC	bb	rr	2	650	1	6	13	9-Feb-16	10	Blue	y	1	1.2839	Y	X	Y	X	b	r	1	650	1	6	13	9-Feb-16	11	Blue	g	0	6.1319	M	S	nnM	nnS	bbb	rrr	3	650	1	6	13	9-Feb-16	12	Blue	d	1	0.8903	W	D	nnW	nnD	rrr	bbb	3	650	1	6	13	9-Feb-16	13	Blue	o	1	0.8241	D	O	nnD	nnO	brr	rbb	3	650	1	6	13	9-Feb-16	14	Blue	i	0	0.7983	I	P	nI	nP	rr	bb	2	2000	1	6	13	9-Feb-16	15	Blue	q	1	1.2279	Q	C	nnnQ	nnnC	rrbb	bbrr	4	2000	1	6	13	9-Feb-16	16	Blue	k	1	0.9632	P	K	P	K	r	b	1	2000	1	6	13	9-Feb-16	17	Blue	m	0	1.088	S	F	nnS	nnF	brb	rbr	3	2000	1	6	13	9-Feb-16	18	Blue	a	1	1.804	A	N	A	N	b	r	1	650	1	6	13	9-Feb-16	19	Blue	a	0	0.953	L	Y	L	Y	r	b	1	2000	1	6	13	9-Feb-16	20	Blue	a	1	1.5081	V	A	nV	nA	rr	bb	2	2000	1	6	13	9-Feb-16	21	Blue	t	0	0.9978	W	N	nnW	nnN	brb	rbr	3	2000	1	6	13	9-Feb-16	22	Blue	q	1	0.9135	E	Q	nnnE	nnnQ	rrrr	bbbb	4	650	1	6	13	9-Feb-16	23	Blue	o	1	0.889	Z	O	nnnZ	nnnO	brbr	rbrb	4	2000	1	6	13	9-Feb-16	24	Blue	r	0	0.8705	Q	E	nnQ	nnE	brr	rbb	3	650	1	6	13	9-Feb-16	25	Blue	z	1	1.4031	Z	J	Z	J	b	r	1	2000	1	6	13	9-Feb-16	26	Blue	s	1	1.599	Y	S	nY	nS	rr	bb	2	2000	1	6	13	9-Feb-16	27	Blue	v	1	1.7101	R	V	nnnR	nnnV	rbrr	brbb	4	650	1	6	13	9-Feb-16	28	Blue	z	1	1.2845	Z	T	Z	T	b	r	1	650	1	6	13	9-Feb-16	29	Blue	x	1	2.5508	N	X	nnN	nnX	rbr	brb	3	2000	1	6	13	9-Feb-16	30	Blue	w	0	2.1097	U	M	nnnU	nnnM	rrrb	bbbr	4	2000	1	6	13	9-Feb-16	31	Blue	w	0	1.114	Y	X	nnnY	nnnX	rrbr	bbrb	4	650	1	6	13	9-Feb-16	32	Blue	h	0	1.1502	T	K	nT	nK	rb	br	2	650	1	6	13	9-Feb-16	1	Red	b	0	0.7935	E	G	nnnE	nnnG	bbbr	rrrb	4	2000	1	6	13	9-Feb-16	2	Red	b	0	0.875	O	H	nnO	nnH	bbr	rrb	3	2000	1	6	13	9-Feb-16	3	Red	t	1	1.4645	X	T	nX	nT	bb	rr	2	2000	1	6	13	9-Feb-16	4	Red	g	1	1.0838	Q	G	nnnQ	nnnG	bbbb	rrrr	4	650	1	6	13	9-Feb-16	5	Red	u	1	1.3178	G	U	nnnG	nnnU	rbbb	brrr	4	650	1	6	13	9-Feb-16	6	Red	y	1	0.8535	T	Y	nnnT	nnnY	rbrb	brbr	4	650	1	6	13	9-Feb-16	7	Red	j	0	0.4232	U	M	nnnU	nnnM	brbr	rbrb	4	2000	1	6	13	9-Feb-16	8	Red	i	1	1.1406	I	Q	I	Q	r	b	1	2000	1	6	13	9-Feb-16	9	Red	m	0	0.8183	J	S	nnJ	nnS	rbr	brb	3	650	1	6	13	9-Feb-16	10	Red	j	1	1.4006	H	J	H	J	b	r	1	650	1	6	13	9-Feb-16	11	Red	e	1	1.2906	S	E	nS	nE	bb	rr	2	650	1	6	13	9-Feb-16	12	Red	e	0	0.9772	V	P	nV	nP	br	rb	2	2000	1	6	13	9-Feb-16	13	Red	v	1	2.0344	V	M	nV	nM	br	rb	2	650	1	6	13	9-Feb-16	14	Red	j	0	1.4905	P	N	nnP	nnN	brb	rbr	3	2000	1	6	13	9-Feb-16	15	Red	i	1	0.9902	C	I	nnnC	nnnI	rrrb	bbbr	4	2000	1	6	13	9-Feb-16	16	Red	u	1	0.9273	U	L	nnU	nnL	brr	rbb	3	650	1	6	13	9-Feb-16	17	Red	q	0	0.8966	M	K	nnnM	nnnK	bbrr	rrbb	4	2000	1	6	13	9-Feb-16	18	Red	g	0	1.1722	H	X	nH	nX	rb	br	2	2000	1	6	13	9-Feb-16	19	Red	k	0	0.9872	M	J	nnM	nnJ	bbr	rrb	3	2000	1	6	13	9-Feb-16	20	Red	b	0	2.4194	J	T	J	T	b	r	1	2000	1	6	13	9-Feb-16	21	Red	a	0	1.1652	N	Q	nnN	nnQ	rbb	brr	3	2000	1	6	13	9-Feb-16	22	Red	b	0	2.8065	V	Z	V	Z	r	b	1	650	1	6	13	9-Feb-16	23	Red	f	1	1.3297	W	F	nnW	nnF	brb	rbr	3	650	1	6	13	9-Feb-16	24	Red	j	0	1.9525	M	Y	nnM	nnY	brb	rbr	3	650	1	6	13	9-Feb-16	25	Red	l	1	1.0164	L	U	nL	nU	br	rb	2	650	1	6	13	9-Feb-16	26	Red	n	0	0.2884	Q	U	Q	U	b	r	1	2000	1	6	13	9-Feb-16	27	Red	w	0	2.3281	C	Z	nC	nZ	bb	rr	2	650	1	6	13	9-Feb-16	28	Red	x	1	3.4114	X	O	nX	nO	rr	bb	2	2000	1	6	13	9-Feb-16	29	Red	j	0	2.711	L	U	L	U	b	r	1	650	1	6	13	9-Feb-16	30	Red	r	0	1.9664	E	H	nnnE	nnnH	rbbr	brrb	4	650	1	6	13	9-Feb-16	31	Red	w	0	2.7733	B	P	B	P	b	r	1	650	1	6	13	9-Feb-16	32	Red	j	0	3.0006	D	V	D	V	b	r	1	2000	1	6	13	9-Feb-16	1	Blue	b	0	0.9709	Y	N	nnnY	nnnN	bbbr	rrrb	4	2000	1	6	13	9-Feb-16	2	Blue	v	1	1.2165	W	V	nnnW	nnnV	bbbr	rrrb	4	2000	1	6	13	9-Feb-16	3	Blue	u	0	0.8109	P	U	nnnP	nnnU	rbbb	brrr	4	650	1	6	13	9-Feb-16	4	Blue	b	0	1.1386	K	B	K	B	b	r	1	650	1	6	13	9-Feb-16	5	Blue	s	0	0.9131	W	K	nnnW	nnnK	rbrb	brbr	4	650	1	6	13	9-Feb-16	6	Blue	a	0	1.8537	F	Y	nnF	nnY	bbb	rrr	3	650	1	6	13	9-Feb-16	7	Blue	u	1	1.0571	O	U	nnO	nnU	rbr	brb	3	650	1	6	13	9-Feb-16	8	Blue	p	1	5.2899	P	E	nP	nE	bb	rr	2	2000	1	6	13	9-Feb-16	9	Blue	s	0	1.2925	D	S	nnD	nnS	brb	rbr	3	650	1	6	13	9-Feb-16	10	Blue	b	0	1.1505	A	O	nnA	nnO	rrb	bbr	3	2000	1	6	13	9-Feb-16	11	Blue	k	0	1.7695	O	K	nO	nK	rb	br	2	2000	1	6	13	9-Feb-16	12	Blue	x	1	1.0673	H	X	nnnH	nnnX	brbr	rbrb	4	650	1	6	13	9-Feb-16	13	Blue	t	1	1.6808	T	N	nT	nN	bb	rr	2	650	1	6	13	9-Feb-16	14	Blue	y	1	1.048	O	Y	O	Y	r	b	1	650	1	6	13	9-Feb-16	15	Blue	a	0	0.6745	B	E	nnnB	nnnE	rbbr	brrb	4	650	1	6	13	9-Feb-16	16	Blue	u	1	2.1979	B	U	B	U	r	b	1	2000	1	6	13	9-Feb-16	17	Blue	j	0	0.5188	E	Y	nnE	nnY	rrb	bbr	3	2000	1	6	13	9-Feb-16	18	Blue	j	1	1.2802	L	J	L	J	r	b	1	650	1	6	13	9-Feb-16	19	Blue	m	1	1.0728	M	U	nnM	nnU	rrb	bbr	3	2000	1	6	13	9-Feb-16	20	Blue	x	0	1.7727	Y	D	nnnY	nnnD	rbbr	brrb	4	2000	1	6	13	9-Feb-16	21	Blue	x	0	1.1778	J	Z	nJ	nZ	rb	br	2	2000	1	6	13	9-Feb-16	22	Blue	b	0	1.4652	M	Z	nnnM	nnnZ	brrb	rbbr	4	2000	1	6	13	9-Feb-16	23	Blue	m	0	0.7467	N	H	nN	nH	br	rb	2	650	1	6	13	9-Feb-16	24	Blue	k	0	0.9723	R	E	R	E	r	b	1	2000	1	6	13	9-Feb-16	25	Blue	m	0	2.2375	T	S	nT	nS	rb	br	2	650	1	6	13	9-Feb-16	26	Blue	z	0	3.7058	X	Z	X	Z	b	r	1	2000	1	6	13	9-Feb-16	27	Blue	f	0	4.2633	B	V	nnB	nnV	bbr	rrb	3	2000	1	6	13	9-Feb-16	28	Blue	r	1	1.4613	Y	R	nY	nR	br	rb	2	650	1	6	13	9-Feb-16	29	Blue	u	1	1.7653	J	U	J	U	r	b	1	650	1	6	13	9-Feb-16	30	Blue	k	0	1.3869	L	K	L	K	b	r	1	2000	1	6	13	9-Feb-16	31	Blue	v	1	1.1342	V	S	nnV	nnS	bbb	rrr	3	650	1	6	13	9-Feb-16	32	Blue	r	0	0.4676	P	J	nP	nJ	bb	rr	2	2000	1	6	13	9-Feb-16	1	Red	s	1	1.6597	S	T	nS	nT	rr	bb	2	2000	1	6	13	9-Feb-16	2	Red	k	1	0.8379	Z	K	nZ	nK	rb	br	2	2000	1	6	13	9-Feb-16	3	Red	g	0	0.9988	H	C	nnH	nnC	bbr	rrb	3	2000	1	6	13	9-Feb-16	4	Red	b	0	1.1955	E	Z	nnE	nnZ	rrr	bbb	3	2000	1	6	13	9-Feb-16	5	Red	z	1	2.0478	S	Z	nnnS	nnnZ	rbbb	brrr	4	650	1	6	13	9-Feb-16	6	Red	y	1	1.2059	Y	B	nnY	nnB	bbr	rrb	3	2000	1	6	13	9-Feb-16	7	Red	g	0	2.2191	Y	Z	nnnY	nnnZ	rbrr	brbb	4	650	1	6	13	9-Feb-16	8	Red	w	0	1.1759	N	X	nN	nX	br	rb	2	650	1	6	13	9-Feb-16	9	Red	r	1	1.2008	R	O	R	O	r	b	1	650	1	6	13	9-Feb-16	10	Red	p	0	4.5225	L	T	nL	nT	rr	bb	2	650	1	6	13	9-Feb-16	11	Red	q	0	2.1846	I	U	nI	nU	br	rb	2	650	1	6	13	9-Feb-16	12	Red	w	0	1.4405	L	R	nL	nR	br	rb	2	650	1	6	13	9-Feb-16	13	Red	k	0	3.6887	E	N	nE	nN	br	rb	2	2000	1	6	13	9-Feb-16	14	Red	b	0	2.0531	R	K	R	K	b	r	1	2000	1	6	13	9-Feb-16	15	Red	j	0	1.7486	C	A	nnnC	nnnA	rbbb	brrr	4	2000	1	6	13	9-Feb-16	16	Red	x	1	2.0024	F	X	F	X	b	r	1	650	1	6	13	9-Feb-16	17	Red	h	0	1.2319	L	O	L	O	b	r	1	2000	1	6	13	9-Feb-16	18	Red	q	0	1.7924	Z	A	nnZ	nnA	rrr	bbb	3	650	1	6	13	9-Feb-16	19	Red	t	1	1.1753	T	I	nnT	nnI	rbr	brb	3	650	1	6	13	9-Feb-16	20	Red	r	0	1.1509	J	E	nnnJ	nnnE	rrrr	bbbb	4	2000	1	6	13	9-Feb-16	21	Red	q	0	1.9814	L	D	nnL	nnD	brr	rbb	3	2000	1	6	13	9-Feb-16	22	Red	q	0	0.9241	O	H	O	H	r	b	1	2000	1	6	13	9-Feb-16	23	Red	w	0	2.5173	G	B	G	B	b	r	1	650	1	6	13	9-Feb-16	24	Red	b	0	1.1678	H	F	H	F	b	r	1	2000	1	6	13	9-Feb-16	25	Red	b	0	0.9427	H	X	nnnH	nnnX	rrrr	bbbb	4	650	1	6	13	9-Feb-16	26	Red	k	0	1.1022	N	M	nnnN	nnnM	rrbr	bbrb	4	2000	1	6	13	9-Feb-16	27	Red	j	0	4.4251	F	V	F	V	b	r	1	650	1	6	13	9-Feb-16	28	Red	m	0	1.0543	K	O	nnnK	nnnO	rbbr	brrb	4	2000	1	6	13	9-Feb-16	29	Red	r	0	1.0296	J	F	nJ	nF	bb	rr	2	2000	1	6	13	9-Feb-16	30	Red	s	0	2.0386	Z	Y	nnZ	nnY	rrr	bbb	3	650	1	6	13	9-Feb-16	31	Red	j	0	5.5993	T	O	nnnT	nnnO	rrrb	bbbr	4	650	1	6	13	9-Feb-16	32	Red	l	0	0.8963	O	L	nnO	nnL	rbr	brb	3	650	1	6	14	9-Feb-16	1	Red	b	0	5.1958	L	O	L	O	b	r	1	650	1	6	14	9-Feb-16	2	Red	e	1	1.0933	E	O	nnnE	nnnO	bbrr	rrbb	4	2000	1	6	14	9-Feb-16	3	Red	r	1	4.1449	F	R	F	R	b	r	1	650	1	6	14	9-Feb-16	4	Red	b	1	1.0175	B	G	nnnB	nnnG	brrr	rbbb	4	2000	1	6	14	9-Feb-16	5	Red	s	1	1.5472	U	S	nnnU	nnnS	rrbb	bbrr	4	650	1	6	14	9-Feb-16	6	Red	d	1	1.4335	D	R	nD	nR	rr	bb	2	650	1	6	14	9-Feb-16	7	Red	v	1	1.3849	V	J	V	J	r	b	1	650	1	6	14	9-Feb-16	8	Red	b	0	1.4218	L	J	nL	nJ	rb	br	2	650	1	6	14	9-Feb-16	9	Red	o	1	0.9375	O	T	nnnO	nnnT	brrr	rbbb	4	650	1	6	14	9-Feb-16	10	Red	h	1	1.2315	F	H	nnnF	nnnH	bbbb	rrrr	4	650	1	6	14	9-Feb-16	11	Red	c	1	1.1511	Q	C	Q	C	b	r	1	2000	1	6	14	9-Feb-16	12	Red	o	1	0.3664	O	M	nnO	nnM	bbr	rrb	3	2000	1	6	14	9-Feb-16	13	Red	k	1	2.6451	K	B	nnK	nnB	bbr	rrb	3	650	1	6	14	9-Feb-16	14	Red	b	0	1.5504	Y	F	nnY	nnF	brb	rbr	3	650	1	6	14	9-Feb-16	15	Red	f	1	1.0773	G	F	nnG	nnF	bbb	rrr	3	650	1	6	14	9-Feb-16	16	Red	c	1	0.9495	H	C	nnnH	nnnC	bbbb	rrrr	4	650	1	6	14	9-Feb-16	17	Red	l	1	0.1439	O	L	O	L	b	r	1	2000	1	6	14	9-Feb-16	18	Red	m	0	1.3185	E	W	nE	nW	bb	rr	2	2000	1	6	14	9-Feb-16	19	Red	o	1	1.9083	Z	O	Z	O	b	r	1	2000	1	6	14	9-Feb-16	20	Red	b	1	1.3258	B	V	B	V	r	b	1	650	1	6	14	9-Feb-16	21	Red	d	1	1.0514	F	D	nF	nD	bb	rr	2	2000	1	6	14	9-Feb-16	22	Red	l	1	1.0853	M	L	nnM	nnL	rbb	brr	3	2000	1	6	14	9-Feb-16	23	Red	r	1	1.0319	R	A	nnnR	nnnA	bbrr	rrbb	4	2000	1	6	14	9-Feb-16	24	Red	h	1	0.6276	H	S	nnnH	nnnS	rbrr	brbb	4	2000	1	6	14	9-Feb-16	25	Red	v	1	1.1846	V	J	nV	nJ	rr	bb	2	2000	1	6	14	9-Feb-16	26	Red	w	1	1.2847	W	S	nW	nS	rr	bb	2	650	1	6	14	9-Feb-16	27	Red	f	1	0.4909	Z	F	Z	F	b	r	1	2000	1	6	14	9-Feb-16	28	Red	q	0	1.4241	H	X	nnH	nnX	rrb	bbr	3	2000	1	6	14	9-Feb-16	29	Red	a	1	1.6418	A	N	nA	nN	br	rb	2	650	1	6	14	9-Feb-16	30	Red	a	1	1.0284	O	A	nnO	nnA	bbb	rrr	3	650	1	6	14	9-Feb-16	31	Red	r	0	0.3725	L	Q	nL	nQ	br	rb	2	2000	1	6	14	9-Feb-16	32	Red	c	1	1.3754	C	I	nnC	nnI	bbr	rrb	3	2000	1	6	14	9-Feb-16	1	Blue	m	1	1.1939	K	M	nnK	nnM	brr	rbb	3	2000	1	6	14	9-Feb-16	2	Blue	k	1	1.0534	W	K	nnW	nnK	bbr	rrb	3	650	1	6	14	9-Feb-16	3	Blue	n	1	0.8945	N	X	nnnN	nnnX	rbbb	brrr	4	650	1	6	14	9-Feb-16	4	Blue	j	1	0.789	J	V	nnnJ	nnnV	rbbb	brrr	4	650	1	6	14	9-Feb-16	5	Blue	b	1	1.0056	Z	B	nZ	nB	rr	bb	2	2000	1	6	14	9-Feb-16	6	Blue	s	1	1.1578	S	A	nS	nA	bb	rr	2	650	1	6	14	9-Feb-16	7	Blue	z	1	1.0832	J	Z	nnJ	nnZ	rbr	brb	3	2000	1	6	14	9-Feb-16	8	Blue	g	1	0.908	G	M	nnG	nnM	brb	rbr	3	650	1	6	14	9-Feb-16	9	Blue	f	1	10.2152	F	P	F	P	b	r	1	2000	1	6	14	9-Feb-16	10	Blue	c	1	0.9091	C	M	C	M	b	r	1	2000	1	6	14	9-Feb-16	11	Blue	p	0	1.7353	L	V	L	V	r	b	1	650	1	6	14	9-Feb-16	12	Blue	u	1	1.2033	J	U	nnnJ	nnnU	rbrr	brbb	4	2000	1	6	14	9-Feb-16	13	Blue	b	0	0.9775	Q	N	nnnQ	nnnN	rrbr	bbrb	4	2000	1	6	14	9-Feb-16	14	Blue	l	1	0.8011	Y	L	Y	L	r	b	1	2000	1	6	14	9-Feb-16	15	Blue	j	0	1.46	U	P	nnU	nnP	rrb	bbr	3	2000	1	6	14	9-Feb-16	16	Blue	p	0	2.0212	P	R	P	R	r	b	1	2000	1	6	14	9-Feb-16	17	Blue	a	1	1.4321	R	A	R	A	r	b	1	650	1	6	14	9-Feb-16	18	Blue	k	1	1.5083	K	H	nnK	nnH	bbb	rrr	3	2000	1	6	14	9-Feb-16	19	Blue	c	1	0.5434	I	C	nnnI	nnnC	bbbr	rrrb	4	2000	1	6	14	9-Feb-16	20	Blue	c	1	1.0036	A	C	nnnA	nnnC	rrbr	bbrb	4	650	1	6	14	9-Feb-16	21	Blue	e	1	1.1704	I	E	I	E	r	b	1	650	1	6	14	9-Feb-16	22	Blue	l	1	1.2713	L	Q	nnL	nnQ	bbb	rrr	3	650	1	6	14	9-Feb-16	23	Blue	q	1	1.1275	Q	W	nnQ	nnW	brb	rbr	3	650	1	6	14	9-Feb-16	24	Blue	a	1	0.7193	M	A	nnnM	nnnA	rrrr	bbbb	4	2000	1	6	14	9-Feb-16	25	Blue	p	1	4.4428	P	I	nP	nI	bb	rr	2	2000	1	6	14	9-Feb-16	26	Blue	w	1	2.0417	C	W	C	W	r	b	1	650	1	6	14	9-Feb-16	27	Blue	w	0	5.3182	X	J	nX	nJ	br	rb	2	650	1	6	14	9-Feb-16	28	Blue	x	1	1.2489	N	X	nN	nX	rr	bb	2	650	1	6	14	9-Feb-16	29	Blue	j	1	0.9041	C	J	nC	nJ	rr	bb	2	650	1	6	14	9-Feb-16	30	Blue	c	1	0.7332	J	C	nJ	nC	rr	bb	2	2000	1	6	14	9-Feb-16	31	Blue	l	1	1.1133	L	A	nL	nA	rb	br	2	2000	1	6	14	9-Feb-16	32	Blue	a	0	2.0312	G	N	nnnG	nnnN	bbbr	rrrb	4	650	1	6	14	9-Feb-16	1	Red	e	1	5.2243	G	E	G	E	b	r	1	2000	1	6	14	9-Feb-16	2	Red	y	1	1.3952	Y	S	Y	S	r	b	1	2000	1	6	14	9-Feb-16	3	Red	c	0	1.4913	W	G	nnnW	nnnG	bbrb	rrbr	4	2000	1	6	14	9-Feb-16	4	Red	w	0	1.4629	X	P	nnnX	nnnP	rrbr	bbrb	4	2000	1	6	14	9-Feb-16	5	Red	t	1	1.2167	Q	T	nnQ	nnT	brb	rbr	3	650	1	6	14	9-Feb-16	6	Red	p	1	1.3868	P	L	nP	nL	br	rb	2	650	1	6	14	9-Feb-16	7	Red	c	1	2.2474	P	C	nnP	nnC	rrb	bbr	3	2000	1	6	14	9-Feb-16	8	Red	q	1	1.3087	Q	E	Q	E	r	b	1	650	1	6	14	9-Feb-16	9	Red	y	1	1.1937	A	Y	A	Y	b	r	1	2000	1	6	14	9-Feb-16	10	Red	m	1	2.0128	P	M	nnP	nnM	rrb	bbr	3	650	1	6	14	9-Feb-16	11	Red	u	1	1.199	V	U	nnnV	nnnU	brbb	rbrr	4	2000	1	6	14	9-Feb-16	12	Red	k	1	0.9071	B	K	nnnB	nnnK	brbb	rbrr	4	650	1	6	14	9-Feb-16	13	Red	b	1	1.1609	B	A	nnnB	nnnA	rbrr	brbb	4	650	1	6	14	9-Feb-16	14	Red	u	1	1.3645	U	S	nU	nS	rr	bb	2	2000	1	6	14	9-Feb-16	15	Red	i	1	0.5473	I	L	nnI	nnL	rbr	brb	3	2000	1	6	14	9-Feb-16	16	Red	j	1	0.8017	J	H	nnnJ	nnnH	brrr	rbbb	4	2000	1	6	14	9-Feb-16	17	Red	i	1	0.5398	I	F	nnI	nnF	brr	rbb	3	2000	1	6	14	9-Feb-16	18	Red	u	1	1.0071	J	U	nnJ	nnU	brb	rbr	3	2000	1	6	14	9-Feb-16	19	Red	u	1	1.666	U	Y	nnnU	nnnY	rbrr	brbb	4	650	1	6	14	9-Feb-16	20	Red	x	1	4.5257	L	X	nnnL	nnnX	brbb	rbrr	4	650	1	6	14	9-Feb-16	21	Red	d	1	1.3307	Y	D	nY	nD	bb	rr	2	650	1	6	14	9-Feb-16	22	Red	w	0	1.5762	G	Q	G	Q	b	r	1	650	1	6	14	9-Feb-16	23	Red	c	1	1.084	C	S	C	S	r	b	1	650	1	6	14	9-Feb-16	24	Red	h	1	1.8901	T	H	nT	nH	bb	rr	2	2000	1	6	14	9-Feb-16	25	Red	g	1	1.4219	Q	G	nnQ	nnG	brb	rbr	3	650	1	6	14	9-Feb-16	26	Red	b	0	1.3909	R	M	nR	nM	rb	br	2	650	1	6	14	9-Feb-16	27	Red	q	1	1.7065	Q	M	nQ	nM	rr	bb	2	2000	1	6	14	9-Feb-16	28	Red	t	1	1.13	N	T	nN	nT	rb	br	2	650	1	6	14	9-Feb-16	29	Red	q	1	0.9025	Q	N	nQ	nN	br	rb	2	2000	1	6	14	9-Feb-16	30	Red	q	1	1.3301	Q	T	Q	T	r	b	1	650	1	6	14	9-Feb-16	31	Red	r	1	1.314	R	Z	nnR	nnZ	brr	rbb	3	650	1	6	14	9-Feb-16	32	Red	l	1	0.5107	Q	L	Q	L	b	r	1	2000	1	6	14	9-Feb-16	1	Blue	l	0	3.1778	Z	G	Z	G	b	r	1	2000	1	6	14	9-Feb-16	2	Blue	c	1	0.9482	D	C	D	C	r	b	1	650	1	6	14	9-Feb-16	3	Blue	a	1	0.9265	U	A	nU	nA	br	rb	2	650	1	6	14	9-Feb-16	4	Blue	w	0	2.3295	I	N	nI	nN	br	rb	2	650	1	6	14	9-Feb-16	5	Blue	q	1	5.8282	I	Q	I	Q	r	b	1	2000	1	6	14	9-Feb-16	6	Blue	a	1	0.7236	S	A	nS	nA	rr	bb	2	2000	1	6	14	9-Feb-16	7	Blue	a	0	1.3606	V	M	nnV	nnM	rbr	brb	3	2000	1	6	14	9-Feb-16	8	Blue	e	1	1.3733	E	R	nnE	nnR	rrb	bbr	3	650	1	6	14	9-Feb-16	9	Blue	p	1	1.0593	S	P	nnS	nnP	bbr	rrb	3	650	1	6	14	9-Feb-16	10	Blue	x	1	0.5324	A	X	nnA	nnX	bbr	rrb	3	2000	1	6	14	9-Feb-16	11	Blue	a	1	0.7887	P	A	P	A	r	b	1	650	1	6	14	9-Feb-16	12	Blue	y	1	1.4061	Y	P	nnnY	nnnP	bbrb	rrbr	4	650	1	6	14	9-Feb-16	13	Blue	c	1	0.8566	M	C	nM	nC	rr	bb	2	650	1	6	14	9-Feb-16	14	Blue	z	1	0.9901	C	Z	nC	nZ	br	rb	2	2000	1	6	14	9-Feb-16	15	Blue	y	1	1.0818	C	Y	nnnC	nnnY	bbbr	rrrb	4	650	1	6	14	9-Feb-16	16	Blue	r	1	0.6506	R	U	nnR	nnU	rbb	brr	3	2000	1	6	14	9-Feb-16	17	Blue	k	1	1.4891	K	P	nK	nP	bb	rr	2	2000	1	6	14	9-Feb-16	18	Blue	n	1	1.7224	H	N	nnnH	nnnN	rbbr	brrb	4	650	1	6	14	9-Feb-16	19	Blue	w	0	2.9336	N	Y	nnnN	nnnY	bbbr	rrrb	4	650	1	6	14	9-Feb-16	20	Blue	p	1	4.1297	P	E	P	E	b	r	1	2000	1	6	14	9-Feb-16	21	Blue	r	1	0.9993	M	R	nnM	nnR	brr	rbb	3	2000	1	6	14	9-Feb-16	22	Blue	l	1	1.0089	L	O	nnL	nnO	bbb	rrr	3	650	1	6	14	9-Feb-16	23	Blue	v	1	0.0026	L	V	nnnL	nnnV	bbrr	rrbb	4	2000	1	6	14	9-Feb-16	24	Blue	g	1	1.1141	N	G	N	G	r	b	1	650	1	6	14	9-Feb-16	25	Blue	n	1	0.7146	N	P	nnnN	nnnP	rbbb	brrr	4	2000	1	6	14	9-Feb-16	26	Blue	r	1	1.9134	Q	R	nnnQ	nnnR	rrbr	bbrb	4	2000	1	6	14	9-Feb-16	27	Blue	b	1	1.4988	H	B	nH	nB	br	rb	2	650	1	6	14	9-Feb-16	28	Blue	i	1	0.6548	E	I	nnnE	nnnI	rrrr	bbbb	4	2000	1	6	14	9-Feb-16	29	Blue	o	1	1.4048	C	O	nnC	nnO	bbr	rrb	3	650	1	6	14	9-Feb-16	30	Blue	m	1	0.7917	M	A	M	A	b	r	1	2000	1	6	14	9-Feb-16	31	Blue	w	0	1.5008	X	N	X	N	b	r	1	650	1	6	14	9-Feb-16	32	Blue	o	1	1.5908	O	N	nO	nN	bb	rr	2	2000	1	6	14	9-Feb-16	1	Red	l	1	1.0687	Q	L	AYQE	ZPLO	brb	rbr	3	650	1	6	04	9-Feb-16	2	Red	s	0	0.9089	U	K	ANSU	BFPK	brrb	rbbr	4	650	1	6	04	9-Feb-16	3	Red	d	1	1.1829	D	Z	DBVX	ZRAT	r	b	1	650	1	6	04	9-Feb-16	4	Red	p	1	0.3196	P	X	WNOP	BUKX	rrbr	bbrb	4	2000	1	6	04	9-Feb-16	5	Red	j	1	3.1899	T	J	TAVY	JMQS	b	r	1	650	1	6	04	9-Feb-16	6	Red	x	1	1.0749	F	X	FHWR	XLGK	b	r	1	2000	1	6	04	9-Feb-16	7	Red	k	1	1.6883	I	K	XIZS	HKTN	bb	rr	2	650	1	6	04	9-Feb-16	8	Red	j	1	2.0729	J	I	YJFC	PITW	rr	bb	2	2000	1	6	04	9-Feb-16	9	Red	e	1	1.3664	T	E	GTPO	IEXF	bb	rr	2	2000	1	6	04	9-Feb-16	10	Red	h	0	1.0758	B	R	HBNG	QRAO	br	rb	2	2000	1	6	04	9-Feb-16	11	Red	z	1	1.1289	Z	X	DWZC	STXR	bbr	rrb	3	650	1	6	04	9-Feb-16	12	Red	a	1	1.2703	A	T	XAPS	DTQN	rr	bb	2	650	1	6	04	9-Feb-16	13	Red	f	0	0.6951	Q	C	NMFQ	WYEC	rrrr	bbbb	4	650	1	6	04	9-Feb-16	14	Red	t	0	3.266	N	P	ZNMF	TPRY	rr	bb	2	650	1	6	04	9-Feb-16	15	Red	z	1	0.9698	J	Z	FTSJ	LVQZ	bbbb	rrrr	4	2000	1	6	04	9-Feb-16	16	Red	w	0	2.3253	U	J	FRXU	SNOJ	brrb	rbbr	4	650	1	6	04	9-Feb-16	17	Red	z	1	0.9376	J	Z	NKJB	WIZH	rrb	bbr	3	2000	1	6	04	9-Feb-16	18	Red	j	1	1.049	J	T	NVJK	IRTF	rbr	brb	3	2000	1	6	04	9-Feb-16	19	Red	y	1	1.2523	G	Y	LUAG	TSHY	rbrb	brbr	4	2000	1	6	04	9-Feb-16	20	Red	r	1	1.1887	W	R	TWQA	MREN	bb	rr	2	650	1	6	04	9-Feb-16	21	Red	e	1	1.1192	B	E	IYBQ	OJEK	bbb	rrr	3	650	1	6	04	9-Feb-16	22	Red	f	1	1.1435	K	F	ODKR	NCFU	brb	rbr	3	2000	1	6	04	9-Feb-16	23	Red	q	0	1.5763	O	U	OSEK	UMAB	r	b	1	650	1	6	04	9-Feb-16	24	Red	c	1	0.9423	C	J	CGUF	JMKH	r	b	1	2000	1	6	04	9-Feb-16	25	Red	a	1	2.1026	Y	A	YXZR	AQJD	b	r	1	650	1	6	04	9-Feb-16	26	Red	b	1	1.0989	T	B	AGTR	WJBK	rbb	brr	3	2000	1	6	04	9-Feb-16	27	Red	f	0	0.915	D	G	ZQDI	FWGO	brb	rbr	3	650	1	6	04	9-Feb-16	28	Red	j	0	1.3226	M	J	NBVM	THUJ	rrbr	bbrb	4	2000	1	6	04	9-Feb-16	29	Red	y	1	1.735	Y	M	YLCN	MIFO	r	b	1	2000	1	6	04	9-Feb-16	30	Red	h	1	1.1893	B	H	BUQM	HGRX	b	r	1	2000	1	6	04	9-Feb-16	31	Red	t	1	1.1446	C	T	HCRP	GTVQ	bb	rr	2	2000	1	6	04	9-Feb-16	32	Red	a	0	0.8396	C	E	HRPC	ONDE	rbrr	brbb	4	650	1	6	04	9-Feb-16	1	Blue	w	0	2.3477	A	J	AOLN	JXYR	b	r	1	650	1	6	04	9-Feb-16	2	Blue	z	1	2.1803	Z	O	ZQXD	OYJM	b	r	1	650	1	6	04	9-Feb-16	3	Blue	d	1	1.175	D	N	KRSD	WOXN	bbrb	rrbr	4	2000	1	6	04	9-Feb-16	4	Blue	d	1	0.4392	D	W	ILZD	GPQW	rrrb	bbbr	4	2000	1	6	04	9-Feb-16	5	Blue	b	0	2.3633	D	Z	TDGS	KZPA	br	rb	2	650	1	6	04	9-Feb-16	6	Blue	d	1	0.9952	D	P	DXST	PWVZ	b	r	1	2000	1	6	04	9-Feb-16	7	Blue	k	1	0.9871	H	K	EHBA	MKZO	rr	bb	2	650	1	6	04	9-Feb-16	8	Blue	j	0	0.9291	H	M	ZCLH	QTJM	rbrr	brbb	4	2000	1	6	04	9-Feb-16	9	Blue	d	1	1.0426	D	A	DEQY	AHZK	b	r	1	2000	1	6	04	9-Feb-16	10	Blue	z	1	1.043	A	Z	KAIO	QZCH	rr	bb	2	2000	1	6	04	9-Feb-16	11	Blue	o	0	3.7542	W	Y	WOPS	YKJD	b	r	1	2000	1	6	04	9-Feb-16	12	Blue	j	1	0.3654	J	C	EQJX	UHCS	rbb	brr	3	2000	1	6	04	9-Feb-16	13	Blue	z	0	0.6361	H	M	EHXY	ZMCD	rr	bb	2	2000	1	6	04	9-Feb-16	14	Blue	e	1	1.1873	E	X	YEDQ	LXPI	bb	rr	2	650	1	6	04	9-Feb-16	15	Blue	f	1	1.5333	A	F	NABE	SFCL	rr	bb	2	2000	1	6	04	9-Feb-16	16	Blue	y	0	1.605	B	M	YJBR	GCMZ	brb	rbr	3	650	1	6	04	9-Feb-16	17	Blue	e	1	1.1397	E	B	ASEZ	UWBY	rbb	brr	3	2000	1	6	04	9-Feb-16	18	Blue	a	0	1.0573	Y	N	IAYW	ZCNV	rbr	brb	3	2000	1	6	04	9-Feb-16	19	Blue	m	1	5.2715	M	E	MOLK	EZAW	b	r	1	650	1	6	04	9-Feb-16	20	Blue	z	1	1.0285	Z	D	BAZN	OQDW	brb	rbr	3	2000	1	6	04	9-Feb-16	21	Blue	f	1	1.0692	F	Z	DFAX	KZGP	rb	br	2	650	1	6	04	9-Feb-16	22	Blue	r	1	10.4129	B	R	ZWXB	NJTR	brbr	rbrb	4	650	1	6	04	9-Feb-16	23	Blue	r	0	1.6571	L	O	AZRL	TYVO	bbbr	rrrb	4	2000	1	6	04	9-Feb-16	24	Blue	x	1	0.9638	X	P	IXWE	BPGY	bb	rr	2	2000	1	6	04	9-Feb-16	25	Blue	w	1	2.854	D	W	DIOA	WSVM	r	b	1	650	1	6	04	9-Feb-16	26	Blue	s	1	3.6118	J	S	JUVP	SRZB	r	b	1	2000	1	6	04	9-Feb-16	27	Blue	f	1	0.9716	H	F	XGHK	ZBFW	brr	rbb	3	650	1	6	04	9-Feb-16	28	Blue	i	0	0.9442	M	D	CKSM	OHID	rbrb	brbr	4	650	1	6	04	9-Feb-16	29	Blue	i	0	1.9229	O	E	KGOV	YQEM	brb	rbr	3	650	1	6	04	9-Feb-16	30	Blue	x	1	0.8471	N	X	FZKN	GDJX	brbr	rbrb	4	650	1	6	04	9-Feb-16	31	Blue	v	1	0.951	V	E	QCTV	KUNE	rbbb	brrr	4	650	1	6	04	9-Feb-16	32	Blue	b	0	1.0345	T	S	CWTX	BQSN	rrb	bbr	3	650	1	6	04	9-Feb-16	1	Red	j	1	1.0931	K	J	PXAK	EBVJ	brbb	rbrr	4	650	1	6	04	9-Feb-16	2	Red	x	1	0.7381	P	X	PHMK	XTWL	b	r	1	2000	1	6	04	9-Feb-16	3	Red	p	1	0.9208	P	T	GMLP	OFAT	rrrr	bbbb	4	2000	1	6	04	9-Feb-16	4	Red	m	1	1.1972	M	R	WMIU	EROX	br	rb	2	2000	1	6	04	9-Feb-16	5	Red	g	0	2.1769	H	X	NOGH	JRMX	bbrb	rrbr	4	650	1	6	04	9-Feb-16	6	Red	t	0	1.1051	M	D	TMHO	QDFC	rr	bb	2	2000	1	6	04	9-Feb-16	7	Red	y	1	1.3207	O	Y	KUOA	JSYV	brb	rbr	3	2000	1	6	04	9-Feb-16	8	Red	q	1	1.4056	Q	Z	QCVY	ZATU	r	b	1	2000	1	6	04	9-Feb-16	9	Red	p	1	2.5356	P	S	PQMH	SIYX	r	b	1	650	1	6	04	9-Feb-16	10	Red	q	1	1.2886	Q	Y	QTVN	YZUE	r	b	1	650	1	6	04	9-Feb-16	11	Red	u	1	1.6026	G	U	XKGS	FRUI	rbb	brr	3	2000	1	6	04	9-Feb-16	12	Red	b	1	3.8618	P	B	PSKJ	BAEL	b	r	1	2000	1	6	04	9-Feb-16	13	Red	i	0	5.6897	I	L	DIEC	ULNM	bb	rr	2	650	1	6	04	9-Feb-16	14	Red	j	1	0.9834	J	Z	UQJF	YVZG	brr	rbb	3	650	1	6	04	9-Feb-16	15	Red	w	0	2.4494	V	T	QNVF	ZDTW	rbr	brb	3	650	1	6	04	9-Feb-16	16	Red	i	0	0.7323	R	N	GIPR	FCUN	brbr	rbrb	4	2000	1	6	04	9-Feb-16	17	Red	p	1	1.071	C	P	MCWI	YPNA	bb	rr	2	2000	1	6	04	9-Feb-16	18	Red	f	1	2.5083	D	F	DWYG	FAOS	b	r	1	2000	1	6	04	9-Feb-16	19	Red	s	1	0.9129	G	S	PGFY	ASWB	rb	br	2	650	1	6	04	9-Feb-16	20	Red	t	0	0.9175	R	J	XRLB	TJSM	br	rb	2	650	1	6	04	9-Feb-16	21	Red	f	1	0.4195	D	F	EODA	HBFV	rrb	bbr	3	2000	1	6	04	9-Feb-16	22	Red	r	0	0.4373	A	K	IQRA	HGYK	brrb	rbbr	4	2000	1	6	04	9-Feb-16	23	Red	c	0	0.8916	G	Z	SHIG	CPMZ	brbr	rbrb	4	650	1	6	04	9-Feb-16	24	Red	d	1	1.5284	D	B	GDEY	ABFK	rr	bb	2	2000	1	6	04	9-Feb-16	25	Red	r	1	0.8025	R	Y	LTZR	AIPY	bbrr	rrbb	4	650	1	6	04	9-Feb-16	26	Red	b	1	1.0702	D	B	KRYD	XJIB	rrbb	bbrr	4	2000	1	6	04	9-Feb-16	27	Red	g	1	1.9639	E	G	EJYN	GOST	b	r	1	650	1	6	04	9-Feb-16	28	Red	w	0	1.659	R	D	WRKO	NDIS	rb	br	2	650	1	6	04	9-Feb-16	29	Red	l	1	0.9661	L	Y	NVLF	MQYA	rrr	bbb	3	650	1	6	04	9-Feb-16	30	Red	b	0	1.2473	O	N	OBIE	NTQC	b	r	1	650	1	6	04	9-Feb-16	31	Red	f	0	1.4739	X	H	TYXZ	GFHJ	rbr	brb	3	2000	1	6	04	9-Feb-16	32	Red	k	0	1.0835	L	A	DBLH	QWAC	rrr	bbb	3	650	1	6	04	9-Feb-16	1	Blue	i	1	0.8203	L	I	GOLQ	UKIN	rbr	brb	3	650	1	6	04	9-Feb-16	2	Blue	m	1	1.8028	V	M	VTAZ	MJYO	r	b	1	650	1	6	04	9-Feb-16	3	Blue	f	1	0.8301	Y	F	TYCB	JFOH	rr	bb	2	650	1	6	04	9-Feb-16	4	Blue	d	0	0.7597	E	I	ZWNE	CDGI	rrbb	bbrr	4	650	1	6	04	9-Feb-16	5	Blue	b	1	0.8186	M	B	AEMG	KDBU	bbr	rrb	3	650	1	6	04	9-Feb-16	6	Blue	h	0	1.0371	L	U	QBHL	JADU	brbr	rbrb	4	2000	1	6	04	9-Feb-16	7	Blue	t	1	1.9168	T	N	TLJH	NKPU	b	r	1	650	1	6	04	9-Feb-16	8	Blue	e	1	0.674	E	N	BSAE	KPWN	rbrb	brbr	4	2000	1	6	04	9-Feb-16	9	Blue	b	0	1.087	I	Y	DZIP	SCYF	rbr	brb	3	650	1	6	04	9-Feb-16	10	Blue	t	1	1.1545	M	T	WMBJ	PTFN	rr	bb	2	650	1	6	04	9-Feb-16	11	Blue	b	1	0.7913	Q	B	YNQI	CJBG	brr	rbb	3	650	1	6	04	9-Feb-16	12	Blue	h	1	0.8411	H	Z	XNHB	RIZS	rbb	brr	3	2000	1	6	04	9-Feb-16	13	Blue	b	1	1.392	D	B	DKQI	BANG	r	b	1	650	1	6	04	9-Feb-16	14	Blue	h	1	1.9493	U	H	TXAU	LISH	bbbr	rrrb	4	650	1	6	04	9-Feb-16	15	Blue	v	1	1.132	J	V	JRZU	VNTY	r	b	1	2000	1	6	04	9-Feb-16	16	Blue	t	1	1.0018	X	T	EPXV	CITL	rrr	bbb	3	2000	1	6	04	9-Feb-16	17	Blue	g	0	1.1327	Y	M	UYZA	GMHL	rb	br	2	2000	1	6	04	9-Feb-16	18	Blue	o	0	1.2637	X	Q	XJMP	QKLC	r	b	1	2000	1	6	04	9-Feb-16	19	Blue	z	1	1.0413	G	Z	RJMG	UOYZ	rrbr	bbrb	4	650	1	6	04	9-Feb-16	20	Blue	j	0	4.1899	C	A	HUEC	NIJA	rrrr	bbbb	4	2000	1	6	04	9-Feb-16	21	Blue	k	1	0.4495	E	K	NFEM	SCKY	rbr	brb	3	2000	1	6	04	9-Feb-16	22	Blue	w	1	1.5419	W	J	ZWQT	IJAN	bb	rr	2	650	1	6	04	9-Feb-16	23	Blue	a	1	1.2345	Z	A	ZRQS	ANUC	r	b	1	650	1	6	04	9-Feb-16	24	Blue	q	0	1.0536	I	H	BQIC	JGHL	bbb	rrr	3	2000	1	6	04	9-Feb-16	25	Blue	l	1	1.3086	Q	L	MQYF	TLHE	rr	bb	2	2000	1	6	04	9-Feb-16	26	Blue	b	1	0.9323	P	B	XPIM	QBTU	br	rb	2	2000	1	6	04	9-Feb-16	27	Blue	j	1	1.0575	U	J	YWRU	VDKJ	rrbr	bbrb	4	650	1	6	04	9-Feb-16	28	Blue	d	1	1.1446	L	D	LCEK	DIQJ	r	b	1	2000	1	6	04	9-Feb-16	29	Blue	h	0	1.4986	N	F	HNEA	IFSD	bb	rr	2	650	1	6	04	9-Feb-16	30	Blue	i	0	1.0482	K	M	JSIK	PDEM	rrbr	bbrb	4	2000	1	6	04	9-Feb-16	31	Blue	t	1	1.3028	F	T	RFUY	ZTCQ	br	rb	2	2000	1	6	04	9-Feb-16	32	Blue	o	1	1.0367	E	O	EWYZ	OUSJ	r	b	1	2000	1	6	09	16-Feb-16	1	Red	h	1	1.0351	H	K	YHOQ	LKEX	rr	bb	2	2000	1	6	09	16-Feb-16	2	Red	w	1	0.6558	W	M	RWOS	KMVL	rr	bb	2	650	1	6	09	16-Feb-16	3	Red	z	1	1.1202	W	Z	QTBW	VHYZ	rrbb	bbrr	4	650	1	6	09	16-Feb-16	4	Red	q	1	1.0757	Q	E	NQVX	JEFT	rr	bb	2	650	1	6	09	16-Feb-16	5	Red	e	1	2.5545	A	E	JATM	UECZ	bb	rr	2	2000	1	6	09	16-Feb-16	6	Red	j	1	2.6091	J	C	YOKJ	MLHC	brbr	rbrb	4	2000	1	6	09	16-Feb-16	7	Red	q	0	0.9313	G	D	RCGZ	ONDF	bbb	rrr	3	650	1	6	09	16-Feb-16	8	Red	h	1	0.9899	F	H	EFIG	RHNO	bb	rr	2	650	1	6	09	16-Feb-16	9	Red	y	1	1.3034	Y	S	YKCW	SLRF	r	b	1	2000	1	6	09	16-Feb-16	10	Red	v	1	4.1023	J	V	TJRK	AVQS	bb	rr	2	2000	1	6	09	16-Feb-16	11	Red	l	1	1.0957	L	T	LJUS	TWPA	r	b	1	650	1	6	09	16-Feb-16	12	Red	u	1	1.9486	U	O	UZKP	OBJM	r	b	1	650	1	6	09	16-Feb-16	13	Red	o	1	0.7127	O	E	FVKO	LDIE	bbrr	rrbb	4	2000	1	6	09	16-Feb-16	14	Red	l	1	0.6285	B	L	OTBR	MELD	rbb	brr	3	650	1	6	09	16-Feb-16	15	Red	d	1	2.0688	D	F	YNDR	QWFX	brr	rbb	3	2000	1	6	09	16-Feb-16	16	Red	o	1	1.0904	O	X	AJOL	DHXV	rrr	bbb	3	650	1	6	09	16-Feb-16	17	Red	m	1	2.8182	X	M	JTEX	RLDM	rrbb	bbrr	4	650	1	6	09	16-Feb-16	18	Red	e	1	1.8028	C	E	CUHA	EFSG	b	r	1	650	1	6	09	16-Feb-16	19	Red	c	1	1.7701	J	C	SAJX	RVCY	brb	rbr	3	2000	1	6	09	16-Feb-16	20	Red	i	1	1.6855	X	I	XHOU	ILJY	b	r	1	2000	1	6	09	16-Feb-16	21	Red	y	1	0.921	Y	Z	ESYV	MDZG	rbr	brb	3	650	1	6	09	16-Feb-16	22	Red	g	1	2.4505	G	S	GIVW	SDCT	r	b	1	650	1	6	09	16-Feb-16	23	Red	k	1	1.4174	X	K	BXYG	LKNT	rb	br	2	650	1	6	09	16-Feb-16	24	Red	s	1	1.5976	X	S	AHRX	KEBS	bbrb	rrbr	4	650	1	6	09	16-Feb-16	25	Red	r	1	2.6924	M	R	YHIM	SZUR	rbrb	brbr	4	650	1	6	09	16-Feb-16	26	Red	v	1	1.205	V	N	XFVP	CHNT	bbr	rrb	3	2000	1	6	09	16-Feb-16	27	Red	e	1	1.1535	C	E	ZTPC	SWQE	rrrb	bbbr	4	2000	1	6	09	16-Feb-16	28	Red	a	1	2.5665	A	I	HAOX	UIKC	br	rb	2	2000	1	6	09	16-Feb-16	29	Red	c	1	1.0031	C	I	QACP	STIV	rrr	bbb	3	2000	1	6	09	16-Feb-16	30	Red	d	1	1.8186	H	D	HGXQ	DFEO	b	r	1	2000	1	6	09	16-Feb-16	31	Red	n	1	1.1178	S	N	SZKT	NOHL	b	r	1	2000	1	6	09	16-Feb-16	32	Red	u	1	0.88	P	U	WHTP	LKGU	bbrb	rrbr	4	2000	1	6	09	16-Feb-16	1	Blue	i	1	1.0595	C	I	ASRC	OQMI	bbrr	rrbb	4	650	1	6	09	16-Feb-16	2	Blue	c	1	1.2107	E	C	GVEY	RKCN	bbr	rrb	3	650	1	6	09	16-Feb-16	3	Blue	i	1	0.6406	M	I	UFVM	KDQI	rbrr	brbb	4	2000	1	6	09	16-Feb-16	4	Blue	s	1	1.7672	C	S	HLCJ	OTSI	bbr	rrb	3	650	1	6	09	16-Feb-16	5	Blue	d	1	1.7494	D	E	DCOU	EGSV	b	r	1	2000	1	6	09	16-Feb-16	6	Blue	p	1	1.0291	B	P	ECBR	UHPK	brr	rbb	3	2000	1	6	09	16-Feb-16	7	Blue	g	1	1.3566	U	G	UARM	GZTF	r	b	1	2000	1	6	09	16-Feb-16	8	Blue	b	0	5.2089	J	O	XJMF	ROAC	rb	br	2	650	1	6	09	16-Feb-16	9	Blue	b	1	1.141	B	Y	BWCA	YKSU	b	r	1	2000	1	6	09	16-Feb-16	10	Blue	p	1	1.8757	P	R	HQCP	KDUR	brrb	rbbr	4	650	1	6	09	16-Feb-16	11	Blue	i	1	1.0801	I	J	KWPI	XNQJ	brbb	rbrr	4	650	1	6	09	16-Feb-16	12	Blue	e	1	1.0878	E	O	DEBC	YOTG	rb	br	2	2000	1	6	09	16-Feb-16	13	Blue	t	0	1.4554	R	A	QEUR	ITYA	bbbr	rrrb	4	650	1	6	09	16-Feb-16	14	Blue	x	1	1.271	N	X	NLYU	XPZK	r	b	1	650	1	6	09	16-Feb-16	15	Blue	u	1	1.1812	U	Y	UASJ	YHNM	b	r	1	650	1	6	09	16-Feb-16	16	Blue	r	1	0.9369	R	H	XRMK	CHNV	bb	rr	2	2000	1	6	09	16-Feb-16	17	Blue	r	1	0.849	R	Y	EJPR	BKNY	rrrb	bbbr	4	2000	1	6	09	16-Feb-16	18	Blue	s	0	5.1189	N	R	DNWO	CRIG	br	rb	2	2000	1	6	09	16-Feb-16	19	Blue	k	1	0.8886	U	K	TRUH	FGKZ	bbr	rrb	3	650	1	6	09	16-Feb-16	20	Blue	d	1	1.8465	I	D	MIWA	VDEC	br	rb	2	650	1	6	09	16-Feb-16	21	Blue	j	1	0.9104	U	J	AFCU	PLVJ	bbbr	rrrb	4	2000	1	6	09	16-Feb-16	22	Blue	h	1	0.8026	L	H	WOLJ	VGHA	brr	rbb	3	2000	1	6	09	16-Feb-16	23	Blue	s	1	1.1102	O	S	NKOU	XHSM	rrr	bbb	3	2000	1	6	09	16-Feb-16	24	Blue	n	1	1.5771	R	N	RSQA	NMTK	r	b	1	650	1	6	09	16-Feb-16	25	Blue	c	1	1.0057	C	N	CHZG	NOMY	b	r	1	2000	1	6	09	16-Feb-16	26	Blue	f	1	0.6292	G	F	TGSX	WFQM	br	rb	2	650	1	6	09	16-Feb-16	27	Blue	v	1	1.0683	V	A	DXVT	UHAE	rrb	bbr	3	650	1	6	09	16-Feb-16	28	Blue	g	1	0.8294	N	G	LUNP	MIGE	brr	rbb	3	2000	1	6	09	16-Feb-16	29	Blue	j	1	1.0413	Y	J	QFTY	AWGJ	bbbr	rrrb	4	2000	1	6	09	16-Feb-16	30	Blue	q	1	1.1828	Q	Y	QSBT	YGFE	b	r	1	650	1	6	09	16-Feb-16	31	Blue	d	0	1.6578	Y	G	TYSW	MGZD	rr	bb	2	650	1	6	09	16-Feb-16	32	Blue	h	1	0.8845	L	H	ALRW	VHPI	br	rb	2	2000	1	6	09	16-Feb-16	1	Red	j	0	1.4523	I	F	YTSI	KEDF	bbbr	rrrb	4	650	1	6	09	16-Feb-16	2	Red	p	1	0.805	P	N	DPMT	YNEG	br	rb	2	650	1	6	09	16-Feb-16	3	Red	f	1	0.7152	F	X	FGER	XQCP	r	b	1	650	1	6	09	16-Feb-16	4	Red	o	1	0.9973	O	J	XOZD	QJKG	br	rb	2	2000	1	6	09	16-Feb-16	5	Red	g	1	1.1379	S	G	MLSW	TBGI	bbb	rrr	3	2000	1	6	09	16-Feb-16	6	Red	q	1	1.124	Q	P	QRAC	PDLU	r	b	1	2000	1	6	09	16-Feb-16	7	Red	l	1	0.6434	N	L	GFNU	YKLH	rbb	brr	3	650	1	6	09	16-Feb-16	8	Red	z	1	0.867	Z	W	IQJZ	SMKW	rbbr	brrb	4	2000	1	6	09	16-Feb-16	9	Red	j	1	0.523	J	P	VTJR	KNPO	bbr	rrb	3	650	1	6	09	16-Feb-16	10	Red	c	1	1.0359	C	B	ICKU	OBQP	rr	bb	2	2000	1	6	09	16-Feb-16	11	Red	k	0	2.1989	R	V	NMBR	XQLV	brrb	rbbr	4	650	1	6	09	16-Feb-16	12	Red	i	1	0.5515	W	I	YRDW	OCSI	brbb	rbrr	4	650	1	6	09	16-Feb-16	13	Red	j	1	0.4261	J	I	STJH	NBIQ	rrr	bbb	3	650	1	6	09	16-Feb-16	14	Red	a	1	1.176	A	H	ZNAF	XSHL	brr	rbb	3	2000	1	6	09	16-Feb-16	15	Red	c	1	0.9107	C	G	HVAC	OXSG	rrrr	bbbb	4	650	1	6	09	16-Feb-16	16	Red	g	1	0.7968	N	G	SQNR	MHGE	bbb	rrr	3	2000	1	6	09	16-Feb-16	17	Red	r	1	1.1883	R	H	RPUV	HXWQ	r	b	1	650	1	6	09	16-Feb-16	18	Red	b	0	1.4218	O	W	GOXH	FWUI	bb	rr	2	650	1	6	09	16-Feb-16	19	Red	x	1	1.3289	Y	X	TYSP	KXGD	bb	rr	2	2000	1	6	09	16-Feb-16	20	Red	n	1	2.3406	F	N	FBVU	NGMR	b	r	1	2000	1	6	09	16-Feb-16	21	Red	l	1	0.9873	L	C	BFAL	YHOC	bbbr	rrrb	4	2000	1	6	09	16-Feb-16	22	Red	g	1	1.2532	G	K	DGAW	ZKSY	rr	bb	2	650	1	6	09	16-Feb-16	23	Red	o	1	1.1318	Q	O	BQFY	ROXL	rb	br	2	650	1	6	09	16-Feb-16	24	Red	i	1	0.6573	I	H	BIGP	ZHOK	br	rb	2	2000	1	6	09	16-Feb-16	25	Red	w	1	1.3351	W	A	TCWR	YKAZ	rrr	bbb	3	2000	1	6	09	16-Feb-16	26	Red	y	1	1.0363	Y	C	YTOQ	CIUW	r	b	1	2000	1	6	09	16-Feb-16	27	Red	y	1	2.2275	F	Y	FIZM	YQGH	b	r	1	2000	1	6	09	16-Feb-16	28	Red	m	1	0.945	Z	M	ZIPW	MGCJ	b	r	1	650	1	6	09	16-Feb-16	29	Red	w	1	0.9519	W	Y	KXQW	FHDY	rbbr	brrb	4	2000	1	6	09	16-Feb-16	30	Red	g	1	1.1789	J	G	CEJO	VAGK	rrb	bbr	3	650	1	6	09	16-Feb-16	31	Red	z	1	1.6743	Z	R	YJIZ	XSDR	rbbr	brrb	4	2000	1	6	09	16-Feb-16	32	Red	f	1	0.9395	F	E	FQTO	ESLI	r	b	1	650	1	6	09	16-Feb-16	1	Blue	v	1	1.19	P	V	PFNL	VWYH	r	b	1	2000	1	6	09	16-Feb-16	2	Blue	c	1	0.9239	S	C	OFVS	EZKC	rrbr	bbrb	4	2000	1	6	09	16-Feb-16	3	Blue	s	1	1.2063	S	Z	SFMR	ZCQT	b	r	1	650	1	6	09	16-Feb-16	4	Blue	y	1	0.9075	Y	J	KDYI	RWJB	rrb	bbr	3	2000	1	6	09	16-Feb-16	5	Blue	i	1	0.9441	V	I	UCVN	SJIZ	rbr	brb	3	650	1	6	09	16-Feb-16	6	Blue	p	0	0.9775	Q	R	KQFZ	NRDP	rr	bb	2	650	1	6	09	16-Feb-16	7	Blue	n	0	3.7031	M	J	TOHM	PFQJ	bbrb	rrbr	4	650	1	6	09	16-Feb-16	8	Blue	s	1	0.8704	S	U	CHJS	NTZU	rbrb	brbr	4	2000	1	6	09	16-Feb-16	9	Blue	i	1	1.2217	Y	I	DVGY	KUWI	brbr	rbrb	4	650	1	6	09	16-Feb-16	10	Blue	i	1	0.6864	A	I	CANU	LIHT	br	rb	2	650	1	6	09	16-Feb-16	11	Blue	e	1	0.6426	E	I	NEZJ	QITF	bb	rr	2	2000	1	6	09	16-Feb-16	12	Blue	u	1	0.9505	A	U	AOBY	UKCD	r	b	1	650	1	6	09	16-Feb-16	13	Blue	k	1	0.5605	K	H	DKWL	SHRO	bb	rr	2	650	1	6	09	16-Feb-16	14	Blue	b	1	1.0362	B	U	SKBF	CZUP	rbb	brr	3	2000	1	6	09	16-Feb-16	15	Blue	l	0	3.9334	W	D	UEKW	MIVD	brbr	rbrb	4	650	1	6	09	16-Feb-16	16	Blue	u	1	0.8427	B	U	DFBA	HRUT	rrr	bbb	3	2000	1	6	09	16-Feb-16	17	Blue	h	1	1.5761	F	H	FGCK	HZDU	r	b	1	650	1	6	09	16-Feb-16	18	Blue	g	1	0.9244	G	D	GEQJ	DCXA	b	r	1	2000	1	6	09	16-Feb-16	19	Blue	d	1	0.884	Z	D	FJOZ	GISD	rrbr	bbrb	4	2000	1	6	09	16-Feb-16	20	Blue	v	1	1.0958	V	B	VMJQ	BFTZ	b	r	1	2000	1	6	09	16-Feb-16	21	Blue	p	1	0.752	E	P	TOEF	CXPG	rrr	bbb	3	650	1	6	09	16-Feb-16	22	Blue	y	1	1.0496	Y	I	NYJT	KIUC	rb	br	2	2000	1	6	09	16-Feb-16	23	Blue	u	1	0.8327	P	U	DPRS	CUXI	rr	bb	2	2000	1	6	09	16-Feb-16	24	Blue	z	1	0.8007	Z	G	ZMHY	GAES	b	r	1	2000	1	6	09	16-Feb-16	25	Blue	s	1	0.9361	U	S	AUTZ	PSEJ	rr	bb	2	2000	1	6	09	16-Feb-16	26	Blue	l	1	0.3799	L	W	CLRQ	JWKM	bb	rr	2	650	1	6	09	16-Feb-16	27	Blue	p	0	0.7119	R	K	RZHM	KBOV	b	r	1	650	1	6	09	16-Feb-16	28	Blue	i	1	0.777	I	C	AJEI	MTDC	rrbb	bbrr	4	2000	1	6	09	16-Feb-16	29	Blue	c	1	0.9323	C	V	SGCD	QRVA	rrb	bbr	3	2000	1	6	09	16-Feb-16	30	Blue	w	0	0.6479	E	R	CXEJ	VWRD	bbb	rrr	3	650	1	6	09	16-Feb-16	31	Blue	p	0	1.389	F	G	MOFA	ZUGJ	rrb	bbr	3	650	1	6	09	16-Feb-16	32	Blue	o	0	3.3559	B	F	PXIB	GSCF	rbrb	brbr	4	650	1	6	09	16-Feb-16	1	Red	x	1	1.5206	Z	X	nnnZ	nnnX	brrb	rbbr	4	650	1	6	19	16-Feb-16	2	Red	w	1	0.7577	W	M	W	M	r	b	1	650	1	6	19	16-Feb-16	3	Red	l	1	0.9299	Q	L	nnnQ	nnnL	rbbb	brrr	4	650	1	6	19	16-Feb-16	4	Red	w	1	1.3789	W	J	W	J	r	b	1	650	1	6	19	16-Feb-16	5	Red	j	1	0.9213	J	S	nnJ	nnS	rrr	bbb	3	2000	1	6	19	16-Feb-16	6	Red	d	1	0.7697	G	D	nnnG	nnnD	bbrb	rrbr	4	2000	1	6	19	16-Feb-16	7	Red	s	0	4.3947	W	E	nW	nE	br	rb	2	650	1	6	19	16-Feb-16	8	Red	x	1	1.8669	V	X	V	X	b	r	1	650	1	6	19	16-Feb-16	9	Red	e	1	0.7455	K	E	nnnK	nnnE	rbbb	brrr	4	2000	1	6	19	16-Feb-16	10	Red	h	1	0.9835	H	G	nnnH	nnnG	bbrr	rrbb	4	2000	1	6	19	16-Feb-16	11	Red	g	1	0.8115	G	W	nnG	nnW	bbr	rrb	3	650	1	6	19	16-Feb-16	12	Red	x	1	2.4031	Q	X	nQ	nX	rb	br	2	2000	1	6	19	16-Feb-16	13	Red	l	0	7.7384	R	U	nR	nU	bb	rr	2	650	1	6	19	16-Feb-16	14	Red	p	1	0.8174	C	P	nnC	nnP	rrb	bbr	3	2000	1	6	19	16-Feb-16	15	Red	l	1	0.8647	I	L	I	L	b	r	1	650	1	6	19	16-Feb-16	16	Red	w	1	0.5118	E	W	nnnE	nnnW	rrbb	bbrr	4	650	1	6	19	16-Feb-16	17	Red	r	1	1.1907	V	R	nnnV	nnnR	rbrb	brbr	4	2000	1	6	19	16-Feb-16	18	Red	h	1	0.9196	H	W	H	W	r	b	1	2000	1	6	19	16-Feb-16	19	Red	u	1	0.6544	V	U	nnV	nnU	rrb	bbr	3	2000	1	6	19	16-Feb-16	20	Red	d	1	0.9159	D	V	D	V	r	b	1	2000	1	6	19	16-Feb-16	21	Red	p	1	0.8308	T	P	T	P	b	r	1	2000	1	6	19	16-Feb-16	22	Red	p	1	0.6929	S	P	nS	nP	rb	br	2	650	1	6	19	16-Feb-16	23	Red	a	1	1.2895	W	A	nW	nA	bb	rr	2	2000	1	6	19	16-Feb-16	24	Red	m	1	0.504	M	G	nM	nG	rr	bb	2	650	1	6	19	16-Feb-16	25	Red	h	1	0.7872	I	H	nI	nH	bb	rr	2	2000	1	6	19	16-Feb-16	26	Red	p	0	0.7052	P	G	P	G	b	r	1	2000	1	6	19	16-Feb-16	27	Red	i	1	0.5744	I	Z	nnI	nnZ	brr	rbb	3	650	1	6	19	16-Feb-16	28	Red	s	1	0.7522	U	S	nnU	nnS	rrb	bbr	3	650	1	6	19	16-Feb-16	29	Red	h	1	0.555	H	S	nnH	nnS	brr	rbb	3	2000	1	6	19	16-Feb-16	30	Red	y	1	0.8297	Y	D	nnnY	nnnD	brrr	rbbb	4	650	1	6	19	16-Feb-16	31	Red	t	1	0.5661	X	T	nX	nT	bb	rr	2	2000	1	6	19	16-Feb-16	32	Red	y	0	0.7828	X	K	nnX	nnK	brr	rbb	3	650	1	6	19	16-Feb-16	1	Blue	b	1	0.7852	B	U	nnB	nnU	rbb	brr	3	650	1	6	19	16-Feb-16	2	Blue	p	1	0.3545	Z	P	nnZ	nnP	bbr	rrb	3	650	1	6	19	16-Feb-16	3	Blue	n	1	0.6086	E	N	E	N	r	b	1	650	1	6	19	16-Feb-16	4	Blue	g	1	0.7773	X	G	nnX	nnG	rrr	bbb	3	2000	1	6	19	16-Feb-16	5	Blue	k	1	0.3254	K	T	nnnK	nnnT	rrbb	bbrr	4	650	1	6	19	16-Feb-16	6	Blue	e	1	0.7459	C	E	nnnC	nnnE	rrbr	bbrb	4	2000	1	6	19	16-Feb-16	7	Blue	h	1	0.6129	H	I	nnH	nnI	rbb	brr	3	650	1	6	19	16-Feb-16	8	Blue	t	1	0.6524	T	R	nT	nR	rb	br	2	2000	1	6	19	16-Feb-16	9	Blue	i	1	0.43	I	F	nnnI	nnnF	brbb	rbrr	4	2000	1	6	19	16-Feb-16	10	Blue	p	0	3.3293	S	D	S	D	r	b	1	2000	1	6	19	16-Feb-16	11	Blue	l	0	1.5996	H	Q	nH	nQ	br	rb	2	650	1	6	19	16-Feb-16	12	Blue	i	1	0.5472	I	P	nI	nP	rb	br	2	650	1	6	19	16-Feb-16	13	Blue	k	1	0.5275	K	S	nnK	nnS	rbb	brr	3	2000	1	6	19	16-Feb-16	14	Blue	l	0	1.4156	S	K	nS	nK	rr	bb	2	650	1	6	19	16-Feb-16	15	Blue	w	0	0.4613	B	R	nnnB	nnnR	rbbr	brrb	4	650	1	6	19	16-Feb-16	16	Blue	d	1	0.5831	D	L	D	L	b	r	1	650	1	6	19	16-Feb-16	17	Blue	b	1	2.164	U	B	nnnU	nnnB	brrr	rbbb	4	2000	1	6	19	16-Feb-16	18	Blue	a	1	1.156	A	O	nA	nO	bb	rr	2	2000	1	6	19	16-Feb-16	19	Blue	v	1	0.8675	L	V	nnnL	nnnV	rrbr	bbrb	4	650	1	6	19	16-Feb-16	20	Blue	t	1	0.7765	O	T	O	T	r	b	1	2000	1	6	19	16-Feb-16	21	Blue	b	1	0.9129	B	V	nnB	nnV	brb	rbr	3	650	1	6	19	16-Feb-16	22	Blue	g	1	0.8369	G	D	G	D	b	r	1	2000	1	6	19	16-Feb-16	23	Blue	s	0	0.87	V	Z	nnV	nnZ	rrb	bbr	3	2000	1	6	19	16-Feb-16	24	Blue	j	1	1.1243	M	J	nM	nJ	rr	bb	2	2000	1	6	19	16-Feb-16	25	Blue	d	1	0.8714	D	Z	nD	nZ	bb	rr	2	650	1	6	19	16-Feb-16	26	Blue	u	1	0.8149	Q	U	nnnQ	nnnU	rrrr	bbbb	4	650	1	6	19	16-Feb-16	27	Blue	s	0	1.0618	L	B	L	B	r	b	1	2000	1	6	19	16-Feb-16	28	Blue	y	1	0.7753	A	Y	nnA	nnY	brr	rbb	3	2000	1	6	19	16-Feb-16	29	Blue	l	1	0.9897	A	L	nnnA	nnnL	bbrr	rrbb	4	2000	1	6	19	16-Feb-16	30	Blue	r	1	0.7501	F	R	nF	nR	br	rb	2	2000	1	6	19	16-Feb-16	31	Blue	a	1	1.1511	A	K	A	K	b	r	1	650	1	6	19	16-Feb-16	32	Blue	y	1	0.9527	K	Y	K	Y	r	b	1	650	1	6	19	16-Feb-16	1	Red	f	1	0.3167	W	F	nnW	nnF	brb	rbr	3	2000	1	6	19	16-Feb-16	2	Red	d	1	0.7993	D	C	nnnD	nnnC	rrrr	bbbb	4	650	1	6	19	16-Feb-16	3	Red	v	1	0.7438	R	V	nR	nV	bb	rr	2	2000	1	6	19	16-Feb-16	4	Red	l	1	0.9973	L	Q	nnL	nnQ	bbr	rrb	3	2000	1	6	19	16-Feb-16	5	Red	r	1	0.6068	G	R	nG	nR	rb	br	2	2000	1	6	19	16-Feb-16	6	Red	y	1	0.817	Z	Y	nnnZ	nnnY	rbrb	brbr	4	2000	1	6	19	16-Feb-16	7	Red	a	1	0.8722	A	O	nA	nO	br	rb	2	2000	1	6	19	16-Feb-16	8	Red	c	1	0.699	U	C	nnnU	nnnC	rbbb	brrr	4	2000	1	6	19	16-Feb-16	9	Red	r	1	0.5575	E	R	E	R	b	r	1	2000	1	6	19	16-Feb-16	10	Red	r	1	0.6435	T	R	T	R	b	r	1	2000	1	6	19	16-Feb-16	11	Red	i	1	0.9237	I	U	nnI	nnU	brr	rbb	3	650	1	6	19	16-Feb-16	12	Red	d	1	0.567	D	O	nnD	nnO	bbr	rrb	3	650	1	6	19	16-Feb-16	13	Red	w	0	0.727	H	N	nH	nN	br	rb	2	2000	1	6	19	16-Feb-16	14	Red	n	1	0.9933	N	H	N	H	r	b	1	650	1	6	19	16-Feb-16	15	Red	m	1	5.0982	A	M	nA	nM	bb	rr	2	650	1	6	19	16-Feb-16	16	Red	z	1	0.3429	Z	O	nnnZ	nnnO	rrbr	bbrb	4	650	1	6	19	16-Feb-16	17	Red	w	1	0.7901	W	V	nW	nV	br	rb	2	650	1	6	19	16-Feb-16	18	Red	a	1	0.5473	A	C	A	C	r	b	1	650	1	6	19	16-Feb-16	19	Red	d	1	0.9544	Q	D	nnnQ	nnnD	rbbb	brrr	4	2000	1	6	19	16-Feb-16	20	Red	k	1	1.0831	K	U	nK	nU	br	rb	2	650	1	6	19	16-Feb-16	21	Red	q	1	0.8768	Z	Q	nnZ	nnQ	bbb	rrr	3	2000	1	6	19	16-Feb-16	22	Red	y	1	0.8429	H	Y	nnH	nnY	rrb	bbr	3	650	1	6	19	16-Feb-16	23	Red	p	1	1.0959	V	P	V	P	b	r	1	2000	1	6	19	16-Feb-16	24	Red	c	1	0.8586	C	X	nnnC	nnnX	rbbr	brrb	4	2000	1	6	19	16-Feb-16	25	Red	g	1	0.7102	G	I	G	I	r	b	1	2000	1	6	19	16-Feb-16	26	Red	o	1	1.0733	O	H	O	H	r	b	1	650	1	6	19	16-Feb-16	27	Red	u	1	1.1294	T	U	nnnT	nnnU	rrrb	bbbr	4	650	1	6	19	16-Feb-16	28	Red	f	1	1.0085	F	V	nnF	nnV	bbr	rrb	3	2000	1	6	19	16-Feb-16	29	Red	m	0	0.9874	M	H	nnnM	nnnH	brrb	rbbr	4	650	1	6	19	16-Feb-16	30	Red	p	0	1.3639	R	T	nR	nT	br	rb	2	650	1	6	19	16-Feb-16	31	Red	t	1	0.7187	U	T	U	T	b	r	1	650	1	6	19	16-Feb-16	32	Red	x	1	0.3714	X	Q	nnX	nnQ	rbr	brb	3	650	1	6	19	16-Feb-16	1	Blue	w	0	0.3489	X	I	nX	nI	rb	br	2	2000	1	6	19	16-Feb-16	2	Blue	p	0	0.8621	R	K	nnR	nnK	bbb	rrr	3	2000	1	6	19	16-Feb-16	3	Blue	y	1	0.3201	Y	A	nnnY	nnnA	brbb	rbrr	4	2000	1	6	19	16-Feb-16	4	Blue	k	1	1.0171	K	A	nK	nA	rb	br	2	650	1	6	19	16-Feb-16	5	Blue	f	1	1.2462	W	F	nnnW	nnnF	bbrr	rrbb	4	2000	1	6	19	16-Feb-16	6	Blue	g	1	1.3572	T	G	nT	nG	rr	bb	2	2000	1	6	19	16-Feb-16	7	Blue	l	1	1.1892	V	L	nnV	nnL	brr	rbb	3	2000	1	6	19	16-Feb-16	8	Blue	e	0	1.2699	H	E	H	E	b	r	1	2000	1	6	19	16-Feb-16	9	Blue	m	1	1.4117	M	C	M	C	b	r	1	650	1	6	19	16-Feb-16	10	Blue	c	1	1.0344	C	M	nnnC	nnnM	bbrb	rrbr	4	650	1	6	19	16-Feb-16	11	Blue	r	1	1.1932	M	R	nM	nR	rr	bb	2	650	1	6	19	16-Feb-16	12	Blue	s	1	1.211	R	S	R	S	r	b	1	2000	1	6	19	16-Feb-16	13	Blue	a	1	1.2588	O	A	O	A	r	b	1	650	1	6	19	16-Feb-16	14	Blue	k	1	1.0779	K	C	nnK	nnC	rbb	brr	3	2000	1	6	19	16-Feb-16	15	Blue	v	1	1.0833	M	V	nnM	nnV	rbr	brb	3	650	1	6	19	16-Feb-16	16	Blue	g	1	1.1444	G	A	G	A	b	r	1	650	1	6	19	16-Feb-16	17	Blue	m	1	1.4871	G	M	nnnG	nnnM	bbrr	rrbb	4	650	1	6	19	16-Feb-16	18	Blue	l	1	1.0172	U	L	nnU	nnL	rbr	brb	3	650	1	6	19	16-Feb-16	19	Blue	e	1	1.1579	E	F	nnnE	nnnF	bbrb	rrbr	4	2000	1	6	19	16-Feb-16	20	Blue	l	1	6.0937	J	L	nnnJ	nnnL	rbbr	brrb	4	2000	1	6	19	16-Feb-16	21	Blue	t	1	3.4114	U	T	nU	nT	rr	bb	2	2000	1	6	19	16-Feb-16	22	Blue	m	1	3.2796	H	M	H	M	r	b	1	2000	1	6	19	16-Feb-16	23	Blue	p	1	1.33	D	P	nnD	nnP	rbr	brb	3	650	1	6	19	16-Feb-16	24	Blue	x	1	1.5292	O	X	nnO	nnX	bbr	rrb	3	2000	1	6	19	16-Feb-16	25	Blue	r	1	2.3285	R	W	nR	nW	bb	rr	2	2000	1	6	19	16-Feb-16	26	Blue	h	1	1.6932	H	G	nnnH	nnnG	brbb	rbrr	4	650	1	6	19	16-Feb-16	27	Blue	i	1	1.9724	I	X	I	X	b	r	1	650	1	6	19	16-Feb-16	28	Blue	g	1	1.5958	W	G	nW	nG	rr	bb	2	650	1	6	19	16-Feb-16	29	Blue	t	1	1.4658	T	M	nnnT	nnnM	rrrb	bbbr	4	650	1	6	19	16-Feb-16	30	Blue	o	1	1.4685	N	O	nnN	nnO	brr	rbb	3	650	1	6	19	16-Feb-16	31	Blue	c	1	1.2597	W	C	nW	nC	br	rb	2	650	1	6	19	16-Feb-16	32	Blue	w	1	1.8513	X	W	X	W	r	b	1	2000	1	6	110	19-Feb-16	1	Blue	t	1	0.6642	R	T	nnnR	nnnT	rbbr	brrb	4	2000	1	6	110	19-Feb-16	2	Blue	w	0	1.1565	I	L	I	L	r	b	1	2000	1	6	110	19-Feb-16	3	Blue	s	1	0.3135	Y	S	nY	nS	rr	bb	2	2000	1	6	110	19-Feb-16	4	Blue	v	0	2.177	A	D	nA	nD	bb	rr	2	650	1	6	110	19-Feb-16	5	Blue	w	0	0.8076	P	N	P	N	r	b	1	2000	1	6	110	19-Feb-16	6	Blue	e	1	0.3376	L	E	nnL	nnE	brr	rbb	3	2000	1	6	110	19-Feb-16	7	Blue	r	0	0.8932	E	V	nnnE	nnnV	rrrb	bbbr	4	650	1	6	110	19-Feb-16	8	Blue	j	1	0.6673	J	I	nnJ	nnI	bbb	rrr	3	650	1	6	110	19-Feb-16	9	Blue	d	1	0.7577	D	Q	D	Q	b	r	1	650	1	6	110	19-Feb-16	10	Blue	x	1	0.7517	X	Q	nX	nQ	rb	br	2	650	1	6	110	19-Feb-16	11	Blue	r	1	0.2981	R	L	nnR	nnL	brb	rbr	3	2000	1	6	110	19-Feb-16	12	Blue	l	1	1.4199	C	L	nC	nL	rr	bb	2	650	1	6	110	19-Feb-16	13	Blue	y	1	0.8687	Y	B	nY	nB	bb	rr	2	650	1	6	110	19-Feb-16	14	Blue	l	1	0.8854	L	C	nnL	nnC	rrb	bbr	3	650	1	6	110	19-Feb-16	15	Blue	e	0	1.18	M	A	nnM	nnA	bbr	rrb	3	2000	1	6	110	19-Feb-16	16	Blue	a	1	0.8886	A	W	nnnA	nnnW	brrb	rbbr	4	650	1	6	110	19-Feb-16	17	Blue	n	0	2.3009	F	Y	F	Y	b	r	1	650	1	6	110	19-Feb-16	18	Blue	w	0	1.0395	O	X	O	X	r	b	1	650	1	6	110	19-Feb-16	19	Blue	p	1	0.7491	U	P	U	P	r	b	1	2000	1	6	110	19-Feb-16	20	Blue	i	1	1.0046	I	U	nnnI	nnnU	brbb	rbrr	4	2000	1	6	110	19-Feb-16	21	Blue	d	1	0.7909	L	D	nnL	nnD	rrr	bbb	3	2000	1	6	110	19-Feb-16	22	Blue	o	1	0.7598	Z	O	nnZ	nnO	rrr	bbb	3	650	1	6	110	19-Feb-16	23	Blue	a	1	0.4082	L	A	L	A	r	b	1	2000	1	6	110	19-Feb-16	24	Blue	l	1	0.3737	L	Q	nL	nQ	bb	rr	2	2000	1	6	110	19-Feb-16	25	Blue	d	0	0.8736	D	W	nnnD	nnnW	brbr	rbrb	4	2000	1	6	110	19-Feb-16	26	Blue	r	0	0.9	Y	G	nnnY	nnnG	rrrr	bbbb	4	2000	1	6	110	19-Feb-16	27	Blue	a	1	0.3112	A	P	nA	nP	bb	rr	2	2000	1	6	110	19-Feb-16	28	Blue	q	1	0.3141	O	Q	nO	nQ	rr	bb	2	2000	1	6	110	19-Feb-16	29	Blue	q	1	0.8281	Q	D	nnnQ	nnnD	rrrb	bbbr	4	650	1	6	110	19-Feb-16	30	Blue	e	1	0.8057	E	N	nnnE	nnnN	brrb	rbbr	4	650	1	6	110	19-Feb-16	31	Blue	i	1	0.9244	I	O	I	O	b	r	1	650	1	6	110	19-Feb-16	32	Blue	y	1	0.8178	J	Y	nnJ	nnY	rrr	bbb	3	650	1	6	110	19-Feb-16	1	Red	x	1	0.9624	X	L	nnX	nnL	rrr	bbb	3	650	1	6	110	19-Feb-16	2	Red	f	0	1.0949	X	F	nnX	nnF	rbr	brb	3	2000	1	6	110	19-Feb-16	3	Red	b	1	0.9005	B	N	nnB	nnN	rrr	bbb	3	650	1	6	110	19-Feb-16	4	Red	e	0	0.7795	I	Q	nnI	nnQ	rrr	bbb	3	2000	1	6	110	19-Feb-16	5	Red	g	1	0.839	G	K	nnnG	nnnK	rrbr	bbrb	4	650	1	6	110	19-Feb-16	6	Red	w	0	1.2632	V	O	nnnV	nnnO	bbrb	rrbr	4	650	1	6	110	19-Feb-16	7	Red	e	1	0.2743	E	Y	nnE	nnY	bbr	rrb	3	2000	1	6	110	19-Feb-16	8	Red	o	1	1.0766	O	R	nO	nR	br	rb	2	650	1	6	110	19-Feb-16	9	Red	i	1	0.8907	L	I	nnL	nnI	bbb	rrr	3	650	1	6	110	19-Feb-16	10	Red	a	1	0.7903	A	U	A	U	r	b	1	650	1	6	110	19-Feb-16	11	Red	k	1	0.3117	K	O	nK	nO	br	rb	2	2000	1	6	110	19-Feb-16	12	Red	p	1	0.6661	H	P	nnH	nnP	rbb	brr	3	650	1	6	110	19-Feb-16	13	Red	c	1	0.7629	D	C	nnnD	nnnC	rrrb	bbbr	4	2000	1	6	110	19-Feb-16	14	Red	q	0	0.9469	Z	S	nZ	nS	rb	br	2	650	1	6	110	19-Feb-16	15	Red	q	0	1.702	H	W	nH	nW	bb	rr	2	650	1	6	110	19-Feb-16	16	Red	j	1	0.9406	K	J	K	J	b	r	1	650	1	6	110	19-Feb-16	17	Red	w	0	0.9877	H	B	nnnH	nnnB	rrrb	bbbr	4	2000	1	6	110	19-Feb-16	18	Red	l	1	0.6622	L	B	nL	nB	rr	bb	2	2000	1	6	110	19-Feb-16	19	Red	q	0	2.6667	F	I	F	I	r	b	1	2000	1	6	110	19-Feb-16	20	Red	z	1	0.2776	Z	D	nnnZ	nnnD	bbrr	rrbb	4	2000	1	6	110	19-Feb-16	21	Red	h	1	0.7506	Z	H	Z	H	b	r	1	2000	1	6	110	19-Feb-16	22	Red	d	1	0.2729	D	A	nD	nA	rr	bb	2	2000	1	6	110	19-Feb-16	23	Red	b	0	0.8457	C	U	nnnC	nnnU	brrb	rbbr	4	650	1	6	110	19-Feb-16	24	Red	v	0	1.8272	N	Z	N	Z	r	b	1	2000	1	6	110	19-Feb-16	25	Red	c	0	0.5909	V	S	nV	nS	rb	br	2	650	1	6	110	19-Feb-16	26	Red	q	1	0.748	Q	B	Q	B	r	b	1	650	1	6	110	19-Feb-16	27	Red	k	1	0.7056	K	Y	nnnK	nnnY	rrbr	bbrb	4	2000	1	6	110	19-Feb-16	28	Red	f	1	0.3165	F	R	F	R	r	b	1	2000	1	6	110	19-Feb-16	29	Red	w	1	0.3912	K	W	nK	nW	bb	rr	2	2000	1	6	110	19-Feb-16	30	Red	z	1	0.2957	F	Z	nnF	nnZ	brb	rbr	3	2000	1	6	110	19-Feb-16	31	Red	w	0	0.7902	A	M	A	M	r	b	1	650	1	6	110	19-Feb-16	32	Red	a	1	0.5535	A	B	nnnA	nnnB	brrr	rbbb	4	650	1	6	110	19-Feb-16	1	Blue	b	0	0.8716	F	X	F	X	r	b	1	2000	1	6	110	19-Feb-16	2	Blue	k	0	2.1889	X	Q	X	Q	b	r	1	2000	1	6	110	19-Feb-16	3	Blue	o	1	0.6191	O	F	O	F	b	r	1	2000	1	6	110	19-Feb-16	4	Blue	e	0	1.0082	Q	L	nQ	nL	br	rb	2	650	1	6	110	19-Feb-16	5	Blue	j	1	0.3078	P	J	nnP	nnJ	rbr	brb	3	2000	1	6	110	19-Feb-16	6	Blue	w	1	1.3953	W	Q	W	Q	b	r	1	650	1	6	110	19-Feb-16	7	Blue	w	1	0.8328	K	W	nnK	nnW	rbr	brb	3	2000	1	6	110	19-Feb-16	8	Blue	l	1	0.2973	L	T	nL	nT	rb	br	2	2000	1	6	110	19-Feb-16	9	Blue	u	1	0.8114	J	U	nnJ	nnU	brr	rbb	3	650	1	6	110	19-Feb-16	10	Blue	p	1	1.994	P	I	nP	nI	bb	rr	2	650	1	6	110	19-Feb-16	11	Blue	a	1	0.4792	A	W	A	W	b	r	1	650	1	6	110	19-Feb-16	12	Blue	o	1	0.7388	O	F	nnO	nnF	rbb	brr	3	650	1	6	110	19-Feb-16	13	Blue	q	0	0.83	Z	C	nZ	nC	br	rb	2	2000	1	6	110	19-Feb-16	14	Blue	y	1	0.2989	Y	C	Y	C	b	r	1	2000	1	6	110	19-Feb-16	15	Blue	t	1	0.3248	T	C	nT	nC	bb	rr	2	2000	1	6	110	19-Feb-16	16	Blue	b	1	0.3769	J	B	nnJ	nnB	brr	rbb	3	2000	1	6	110	19-Feb-16	17	Blue	l	1	0.8139	R	L	R	L	r	b	1	650	1	6	110	19-Feb-16	18	Blue	n	1	0.2708	N	G	nnN	nnG	bbb	rrr	3	2000	1	6	110	19-Feb-16	19	Blue	r	1	0.2454	R	M	nnnR	nnnM	rrrb	bbbr	4	2000	1	6	110	19-Feb-16	20	Blue	z	1	0.6438	Z	F	nnnZ	nnnF	bbrb	rrbr	4	650	1	6	110	19-Feb-16	21	Blue	i	1	0.6736	I	D	nI	nD	bb	rr	2	650	1	6	110	19-Feb-16	22	Blue	q	1	0.744	R	Q	nnnR	nnnQ	rbrr	brbb	4	650	1	6	110	19-Feb-16	23	Blue	i	1	0.3175	O	I	nnnO	nnnI	brbr	rbrb	4	2000	1	6	110	19-Feb-16	24	Blue	r	1	0.713	R	Z	nnnR	nnnZ	rbbb	brrr	4	650	1	6	110	19-Feb-16	25	Blue	n	1	0.2882	N	K	nnnN	nnnK	rrrb	bbbr	4	2000	1	6	110	19-Feb-16	26	Blue	l	1	0.418	L	S	nL	nS	rb	br	2	2000	1	6	110	19-Feb-16	27	Blue	q	1	0.626	Q	B	nnQ	nnB	rbb	brr	3	650	1	6	110	19-Feb-16	28	Blue	i	1	0.7773	I	C	nnnI	nnnC	rrrb	bbbr	4	650	1	6	1