SubID	SessionDate	Trial	TargetColor	Response	Correct	RT	leftTargetLetter	rightTargetLetter	leftLetters	rightLetters	leftColors	rightColors	trainLength	TOA	Mask	SOA	Blocked7	22-Oct-14	1	Red	o	0	0.0011	U	M	U	M	b	r	1	2000	1	6	17	22-Oct-14	2	Red	w	0	0.8085	B	R	B	R	r	b	1	2000	1	6	17	22-Oct-14	3	Red	f	0	1.4856	M	F	M	F	r	b	1	2000	1	6	17	22-Oct-14	4	Red	c	1	0.6052	Y	C	Y	C	b	r	1	650	1	6	17	22-Oct-14	5	Red	r	1	0.4189	T	R	T	R	b	r	1	650	1	6	17	22-Oct-14	6	Red	c	1	0.4473	M	C	M	C	b	r	1	650	1	6	17	22-Oct-14	7	Red	e	1	0.3857	L	E	L	E	b	r	1	650	1	6	17	22-Oct-14	8	Red	v	1	0.3109	N	V	N	V	b	r	1	650	1	6	17	22-Oct-14	9	Red	i	0	23.9993	J	T	J	T	b	r	1	2000	1	6	17	22-Oct-14	10	Red	v	0	0.9231	V	Q	V	Q	b	r	1	650	1	6	17	22-Oct-14	11	Red	o	1	0.001	O	P	O	P	r	b	1	2000	1	6	17	22-Oct-14	12	Red	t	1	0.3119	T	A	T	A	r	b	1	650	1	6	17	22-Oct-14	13	Red	u	1	1.9207	F	U	F	U	b	r	1	2000	1	6	17	22-Oct-14	14	Red	t	1	3.4959	T	O	T	O	r	b	1	2000	1	6	17	22-Oct-14	15	Red	d	0	0.9929	O	E	O	E	r	b	1	650	1	6	17	22-Oct-14	16	Red	g	1	0.4733	H	G	H	G	b	r	1	2000	1	6	17	22-Oct-14	1	Blue	a	1	3.151	A	Z	A	Z	b	r	1	2000	1	6	17	22-Oct-14	2	Blue	w	0	4.4995	Q	U	Q	U	r	b	1	2000	1	6	17	22-Oct-14	3	Blue	m	1	0.6574	M	Y	M	Y	b	r	1	650	1	6	17	22-Oct-14	4	Blue	l	1	2.9651	L	Z	L	Z	b	r	1	2000	1	6	17	22-Oct-14	5	Blue	w	0	0.7761	C	P	C	P	r	b	1	650	1	6	17	22-Oct-14	6	Blue	i	1	0.408	H	I	H	I	r	b	1	650	1	6	17	22-Oct-14	7	Blue	v	1	0.9234	N	V	N	V	r	b	1	650	1	6	17	22-Oct-14	8	Blue	w	0	2.6147	S	N	S	N	b	r	1	2000	1	6	17	22-Oct-14	9	Blue	b	0	0.5814	T	G	T	G	r	b	1	650	1	6	17	22-Oct-14	10	Blue	s	1	3.3161	G	S	G	S	r	b	1	2000	1	6	17	22-Oct-14	11	Blue	c	0	0.001	B	C	B	C	b	r	1	2000	1	6	17	22-Oct-14	12	Blue	t	1	2.4225	J	T	J	T	r	b	1	2000	1	6	17	22-Oct-14	13	Blue	g	1	0.6768	F	G	F	G	r	b	1	650	1	6	17	22-Oct-14	14	Blue	w	0	1.7837	C	M	C	M	r	b	1	650	1	6	17	22-Oct-14	15	Blue	y	1	1.5321	E	Y	E	Y	r	b	1	2000	1	6	17	22-Oct-14	16	Blue	b	0	1.2573	V	O	V	O	b	r	1	650	1	6	17	22-Oct-14	1	Red	o	0	0.7702	N	E	ICAN	HKTE	rbrb	brbr	4	650	1	6	17	22-Oct-14	2	Red	v	1	0.5812	B	V	ZUDB	SKPV	bbbb	rrrr	4	650	1	6	17	22-Oct-14	3	Red	b	0	1.5463	L	A	ESFL	UVYA	rrbb	bbrr	4	2000	1	6	17	22-Oct-14	4	Red	z	1	0.6525	Q	Z	BKCQ	FPXZ	rbrb	brbr	4	2000	1	6	17	22-Oct-14	5	Red	m	1	1.2279	E	M	HLYE	DFGM	rrbb	bbrr	4	650	1	6	17	22-Oct-14	6	Red	h	1	2.5931	H	X	STIH	FJQX	rrbr	bbrb	4	2000	1	6	17	22-Oct-14	7	Red	n	1	0.8766	N	E	YQXN	STOE	brbr	rbrb	4	650	1	6	17	22-Oct-14	8	Red	f	1	1.0362	W	F	EXMW	GKBF	brrb	rbbr	4	650	1	6	17	22-Oct-14	9	Red	z	0	0.9191	U	X	PDBU	WAHX	brbr	rbrb	4	650	1	6	17	22-Oct-14	10	Red	h	1	1.239	H	F	BIYH	RCXF	bbrr	rrbb	4	2000	1	6	17	22-Oct-14	11	Red	w	1	1.2584	W	R	QBPW	SINR	brrr	rbbb	4	650	1	6	17	22-Oct-14	12	Red	b	1	1.3179	B	K	AMCB	FLEK	rbbr	brrb	4	2000	1	6	17	22-Oct-14	13	Red	t	1	0.9925	T	Y	EHWT	RZNY	rbrr	brbb	4	2000	1	6	17	22-Oct-14	14	Red	v	1	2.2538	E	V	HCGE	KUDV	brbb	rbrr	4	2000	1	6	17	22-Oct-14	15	Red	t	1	1.365	T	W	JPUT	FNGW	bbrr	rrbb	4	650	1	6	17	22-Oct-14	16	Red	j	1	0.3258	J	Y	TVOJ	SIXY	rbrr	brbb	4	2000	1	6	17	22-Oct-14	1	Blue	q	0	1.0319	S	T	JGNS	HAZT	rrrb	bbbr	4	650	1	6	17	22-Oct-14	2	Blue	e	1	0.8817	E	B	GRAE	HXYB	bbrb	rrbr	4	650	1	6	17	22-Oct-14	3	Blue	c	1	0.4917	C	N	TURC	FOPN	rbbb	brrr	4	2005	1	6	17	22-Oct-14	4	Blue	w	0	0.6485	V	Z	UFSV	XNGZ	brrb	rbbr	4	650	1	6	17	22-Oct-14	5	Blue	o	0	0.4104	D	F	WMKD	JXNF	rbrb	brbr	4	2005	1	6	17	22-Oct-14	6	Blue	b	0	0.8503	K	E	BILK	ZPGE	bbbr	rrrb	4	650	1	6	17	22-Oct-14	7	Blue	e	0	1.8108	C	Q	TSWC	ROBQ	rrrb	bbbr	4	650	1	6	17	22-Oct-14	8	Blue	q	0	0.0011	H	F	PRBH	NQAF	rbrb	brbr	4	2005	1	6	17	22-Oct-14	9	Blue	b	0	4.2115	G	U	VHSG	WMNU	rrbb	bbrr	4	2005	1	6	17	22-Oct-14	10	Blue	z	1	0.3528	Z	E	LGAZ	DCKE	brbb	rbrr	4	2005	1	6	17	22-Oct-14	11	Blue	k	1	1.2672	O	K	GIEO	FTHK	bbrr	rrbb	4	650	1	6	17	22-Oct-14	12	Blue	g	1	0.0011	G	W	LZEG	SBDW	bbrb	rrbr	4	2005	1	6	17	22-Oct-14	13	Blue	q	1	0.9755	G	Q	EMPG	VWXQ	rrbr	bbrb	4	2005	1	6	17	22-Oct-14	14	Blue	b	0	1.7631	G	D	ICJG	VNKD	rbbb	brrr	4	650	1	6	17	22-Oct-14	15	Blue	j	1	1.2139	G	J	WHCG	AXNJ	bbrr	rrbb	4	2005	1	6	17	22-Oct-14	16	Blue	z	0	1.0503	A	N	POHA	GLRN	brrr	rbbb	4	650	1	6	17	22-Oct-14	1	Red	m	0	1.0382	W	N	QW	DN	br	rb	2	650	1	6	17	22-Oct-14	2	Red	j	1	0.605	T	J	VT	MJ	bb	rr	2	650	1	6	17	22-Oct-14	3	Red	k	0	0.6683	Q	G	IQ	JG	rb	br	2	650	1	6	17	22-Oct-14	4	Red	o	0	0.9848	F	K	DF	MK	rb	br	2	650	1	6	17	22-Oct-14	5	Red	m	0	0.931	S	B	ES	KB	rb	br	2	650	1	6	17	22-Oct-14	6	Red	r	1	3.7034	R	H	MR	DH	rr	bb	2	2000	1	6	17	22-Oct-14	7	Red	i	1	0.4436	I	K	EI	UK	br	rb	2	2000	1	6	17	22-Oct-14	8	Red	h	0	0.7201	H	Q	UH	GQ	rb	br	2	2000	1	6	17	22-Oct-14	9	Red	c	0	1.4671	U	J	OU	AJ	bb	rr	2	650	1	6	17	22-Oct-14	10	Red	g	1	0.3176	G	V	OG	IV	rr	bb	2	2000	1	6	17	22-Oct-14	11	Red	c	1	0.9751	C	M	AC	HM	br	rb	2	2000	1	6	17	22-Oct-14	12	Red	v	1	0.9698	V	S	ZV	OS	rr	bb	2	2000	1	6	17	22-Oct-14	13	Red	n	0	1.4611	G	O	BG	JO	bb	rr	2	650	1	6	17	22-Oct-14	14	Red	b	1	0.9727	Z	B	EZ	QB	bb	rr	2	650	1	6	17	22-Oct-14	15	Red	k	0	1.3039	H	W	QH	DW	bb	rr	2	2000	1	6	17	22-Oct-14	16	Red	t	0	0.9914	A	S	PA	TS	bb	rr	2	2000	1	6	17	22-Oct-14	1	Blue	b	0	0.6009	E	A	LE	NA	br	rb	2	2000	1	6	17	22-Oct-14	2	Blue	z	1	0.7762	U	Z	NU	GZ	rr	bb	2	2000	1	6	17	22-Oct-14	3	Blue	w	0	1.3295	O	Q	AO	XQ	rr	bb	2	650	1	6	17	22-Oct-14	4	Blue	l	1	1.0312	G	L	YG	BL	br	rb	2	650	1	6	17	22-Oct-14	5	Blue	a	1	0.8791	X	A	QX	TA	br	rb	2	650	1	6	17	22-Oct-14	6	Blue	v	1	1.0448	M	V	GM	BV	rr	bb	2	2000	1	6	17	22-Oct-14	7	Blue	v	0	2.4446	P	A	WP	GA	bb	rr	2	650	1	6	17	22-Oct-14	8	Blue	b	1	0.7806	E	B	AE	UB	br	rb	2	2000	1	6	17	22-Oct-14	9	Blue	j	1	0.9818	J	U	EJ	LU	bb	rr	2	2000	1	6	17	22-Oct-14	10	Blue	w	0	1.3275	Z	G	OZ	CG	rb	br	2	650	1	6	17	22-Oct-14	11	Blue	g	1	0.4849	C	G	RC	UG	br	rb	2	2000	1	6	17	22-Oct-14	12	Blue	m	0	1.4083	G	W	MG	RW	rr	bb	2	650	1	6	17	22-Oct-14	13	Blue	s	1	0.6357	D	S	YD	VS	rr	bb	2	2000	1	6	17	22-Oct-14	14	Blue	s	1	2.3704	G	S	PG	LS	br	rb	2	2000	1	6	17	22-Oct-14	15	Blue	p	1	1.1953	B	P	OB	MP	br	rb	2	650	1	6	17	22-Oct-14	16	Blue	q	0	0.9492	S	O	GS	HO	br	rb	2	650	1	6	17	22-Oct-14	1	Red	m	0	1.2363	S	U	KCS	WTU	bbr	rrb	3	650	1	6	17	22-Oct-14	2	Red	c	1	0.7182	C	U	MSC	EBU	rbr	brb	3	650	1	6	17	22-Oct-14	3	Red	q	0	1.8103	Y	R	VTY	DIR	rrb	bbr	3	650	1	6	17	22-Oct-14	4	Red	b	1	0.794	B	K	PYB	VXK	rrr	bbb	3	2000	1	6	17	22-Oct-14	5	Red	l	1	0.7163	L	V	FKL	GUV	rbr	brb	3	2000	1	6	17	22-Oct-14	6	Red	l	1	0.9281	L	A	TML	HXA	brr	rbb	3	650	1	6	17	22-Oct-14	7	Red	g	1	1.8123	G	R	BWG	KJR	bbr	rrb	3	650	1	6	17	22-Oct-14	8	Red	o	0	1.7784	Y	X	DRY	UHX	bbr	rrb	3	650	1	6	17	22-Oct-14	9	Red	i	1	0.7144	J	I	NYJ	TKI	rbb	brr	3	2000	1	6	17	22-Oct-14	10	Red	c	0	0.1758	X	E	UBX	DYE	rbr	brb	3	2000	1	6	17	22-Oct-14	11	Red	f	1	0.7676	F	O	XNF	GIO	brr	rbb	3	2000	1	6	17	22-Oct-14	12	Red	h	0	1.7781	K	M	GUK	OPM	brb	rbr	3	650	1	6	17	22-Oct-14	13	Red	s	1	0.9466	Q	S	VLQ	OFS	brb	rbr	3	2000	1	6	17	22-Oct-14	14	Red	t	1	5.5435	U	T	WMU	LRT	brb	rbr	3	2000	1	6	17	22-Oct-14	15	Red	q	0	1.2992	I	X	YMI	JWX	bbr	rrb	3	650	1	6	17	22-Oct-14	16	Red	w	0	2.1083	V	Z	YUV	HAZ	rbb	brr	3	2000	1	6	17	22-Oct-14	1	Blue	o	1	0.8952	O	N	WSO	ACN	brb	rbr	3	650	1	6	17	22-Oct-14	2	Blue	h	1	0.6216	H	X	QNH	PKX	bbb	rrr	3	2000	1	6	17	22-Oct-14	3	Blue	c	1	0.7809	C	X	PHC	JRX	brb	rbr	3	650	1	6	17	22-Oct-14	4	Blue	c	0	4.9039	X	O	KAX	QVO	rbb	brr	3	2000	1	6	17	22-Oct-14	5	Blue	s	1	0.0011	S	Z	UTS	GKZ	rrb	bbr	3	2000	1	6	17	22-Oct-14	6	Blue	m	1	0.4977	M	V	YLM	PWV	brb	rbr	3	2000	1	6	17	22-Oct-14	7	Blue	n	1	0.9566	N	V	ZWN	UOV	brb	rbr	3	650	1	6	17	22-Oct-14	8	Blue	w	0	1.3605	S	P	ZQS	RJP	rbr	brb	3	650	1	6	17	22-Oct-14	9	Blue	i	1	0.4072	A	I	ORA	JXI	brr	rbb	3	2000	1	6	17	22-Oct-14	10	Blue	o	0	1.2527	M	N	VLM	AHN	rbb	brr	3	650	1	6	17	22-Oct-14	11	Blue	j	1	2.7023	L	J	DIL	CTJ	rrr	bbb	3	650	1	6	17	22-Oct-14	12	Blue	m	0	1.2761	V	E	OTV	KFE	rrb	bbr	3	650	1	6	17	22-Oct-14	13	Blue	b	0	0.2144	Y	F	BSY	UIF	rrb	bbr	3	2000	1	6	17	22-Oct-14	14	Blue	b	0	2.9009	Z	R	UWZ	IER	rbb	brr	3	2000	1	6	17	22-Oct-14	15	Blue	o	0	1.0054	V	X	EAV	DRX	rbr	brb	3	2000	1	6	17	22-Oct-14	16	Blue	n	1	1.2069	Q	N	KLQ	GWN	brr	rbb	3	650	1	6	17	22-Oct-14	1	Red	a	1	1.5497	W	A	HBCW	VMSA	bbbb	rrrr	4	650	1	6	07	22-Oct-14	2	Red	w	0	1.1408	H	X	LMHC	DNXV	bbr	rrb	3	650	1	6	07	22-Oct-14	3	Red	c	1	0.9709	C	L	OECY	NZLA	brr	rbb	3	650	1	6	07	22-Oct-14	4	Red	t	1	1.3568	T	K	ZTFC	HKXN	br	rb	2	2000	1	6	07	22-Oct-14	5	Red	m	1	1.4591	M	W	DLPM	YSUW	rbrr	brbb	4	650	1	6	07	22-Oct-14	6	Red	f	1	1.5008	N	F	VNOP	UFSG	rb	br	2	2000	1	6	07	22-Oct-14	7	Red	q	0	2.6457	P	S	VZPQ	ERSN	rbb	brr	3	650	1	6	07	22-Oct-14	8	Red	c	1	2.0327	C	J	LMXC	BGTJ	rrbr	bbrb	4	2000	1	6	07	22-Oct-14	9	Red	w	0	1.6452	D	L	ODUW	ILBC	bb	rr	2	650	1	6	07	22-Oct-14	10	Red	y	0	1.5432	C	N	COGA	NBLW	r	b	1	2000	1	6	07	22-Oct-14	11	Red	m	0	1.4537	C	V	LFCE	AXVU	rbr	brb	3	650	1	6	07	22-Oct-14	12	Red	r	0	2.8334	N	J	DPCN	WHAJ	bbbb	rrrr	4	650	1	6	07	22-Oct-14	13	Red	w	0	0.4287	J	I	QPJE	VSIL	brr	rbb	3	2000	1	6	07	22-Oct-14	14	Red	m	0	1.5799	K	L	OJKQ	IRLN	rbb	brr	3	2000	1	6	07	22-Oct-14	15	Red	o	0	1.4508	H	R	ALHO	GZRU	rrb	bbr	3	2000	1	6	07	22-Oct-14	16	Red	a	0	1.2914	P	O	PCHM	OFGE	b	r	1	2000	1	6	07	22-Oct-14	17	Red	w	0	1.3989	F	M	YGWF	URLM	brbr	rbrb	4	2000	1	6	07	22-Oct-14	18	Red	m	0	2.2098	E	D	KEOH	YDZV	bb	rr	2	2000	1	6	07	22-Oct-14	19	Red	w	0	2.7519	J	U	JOGK	UVCW	r	b	1	650	1	6	07	22-Oct-14	20	Red	w	0	0.0011	N	W	ANCK	RWHQ	rr	bb	2	2000	1	6	07	22-Oct-14	21	Red	w	0	0.0011	T	V	RKWT	UBIV	rrbr	bbrb	4	2000	1	6	07	22-Oct-14	22	Red	r	0	1.064	E	H	EVFB	HWMY	r	b	1	2000	1	6	07	22-Oct-14	23	Red	m	0	1.7227	H	M	TKWH	OABM	bbrr	rrbb	4	2000	1	6	07	22-Oct-14	24	Red	o	0	1.9696	T	S	TIKR	SZWB	r	b	1	650	1	6	07	22-Oct-14	25	Red	d	0	2.8484	X	G	MXPV	KGAJ	br	rb	2	650	1	6	07	22-Oct-14	26	Red	i	0	6.855	H	W	HYPE	WVDR	b	r	1	650	1	6	07	22-Oct-14	27	Red	v	0	1.6136	Z	E	UXLZ	QPHE	bbrr	rrbb	4	650	1	6	07	22-Oct-14	28	Red	c	0	1.2761	P	M	RUPD	KBMX	rbr	brb	3	2000	1	6	07	22-Oct-14	29	Red	w	0	0.8906	O	X	OSVP	XLWA	b	r	1	2000	1	6	07	22-Oct-14	30	Red	i	0	2.5507	V	W	XVHM	IWCJ	br	rb	2	650	1	6	07	22-Oct-14	31	Red	q	0	2.1037	O	I	OTEJ	IDYG	r	b	1	650	1	6	07	22-Oct-14	32	Red	b	0	1.3462	X	F	HXMQ	NFKG	br	rb	2	650	1	6	07	22-Oct-14	1	Blue	v	0	1.5918	U	R	AUJE	LRIZ	bb	rr	2	650	1	6	07	22-Oct-14	2	Blue	f	1	1.1402	F	J	ZKFN	VAJY	rbb	brr	3	650	1	6	07	22-Oct-14	3	Blue	w	1	1.3765	W	Q	WIES	QMCD	b	r	1	650	1	6	07	22-Oct-14	4	Blue	w	0	1.0948	L	W	MUKL	OXPW	rbrb	brbr	4	650	1	6	07	22-Oct-14	5	Blue	b	0	0.6961	V	E	PRIV	MJCE	brbr	rbrb	4	2000	1	6	07	22-Oct-14	6	Blue	m	0	0.862	N	P	FDNK	UQPX	bbr	rrb	3	2000	1	6	07	22-Oct-14	7	Blue	e	1	1.3314	E	X	EOLN	XQKC	b	r	1	2000	1	6	07	22-Oct-14	8	Blue	w	0	3.264	S	Q	STBZ	QNKG	b	r	1	650	1	6	07	22-Oct-14	9	Blue	q	0	1.5284	B	V	BQAK	VDOT	r	b	1	650	1	6	07	22-Oct-14	10	Blue	n	0	0.4714	M	E	GMUB	XEHJ	br	rb	2	2000	1	6	07	22-Oct-14	11	Blue	n	0	1.4097	F	T	FOEG	TRVK	r	b	1	650	1	6	07	22-Oct-14	12	Blue	m	0	3.2067	E	S	RCZE	PNXS	brrr	rbbb	4	650	1	6	07	22-Oct-14	13	Blue	b	0	1.3398	T	F	QTGE	IFXC	rr	bb	2	2000	1	6	07	22-Oct-14	14	Blue	u	0	3.3041	H	L	HBFU	LKYG	b	r	1	2000	1	6	07	22-Oct-14	15	Blue	o	0	2.7788	H	I	ZTHO	YRIG	rrr	bbb	3	2000	1	6	07	22-Oct-14	16	Blue	y	0	1.8961	D	M	GBDH	TNMP	rbr	brb	3	2000	1	6	07	22-Oct-14	17	Blue	v	0	0.569	P	A	PBDZ	AMRX	r	b	1	2000	1	6	07	22-Oct-14	18	Blue	b	1	0.0644	Q	B	QJHF	BDOG	r	b	1	2000	1	6	07	22-Oct-14	19	Blue	y	0	2.3023	R	P	JEUR	DIBP	rrbb	bbrr	4	2000	1	6	07	22-Oct-14	20	Blue	r	0	2.0105	R	A	VHRZ	YUAS	bbr	rrb	3	650	1	6	07	22-Oct-14	21	Blue	h	0	2.4989	C	X	NHKC	VBQX	rbrr	brbb	4	650	1	6	07	22-Oct-14	22	Blue	y	0	4.1136	C	S	JACM	ZGSP	bbr	rrb	3	2000	1	6	07	22-Oct-14	23	Blue	s	1	1.4022	S	F	QJMS	DOPF	bbrb	rrbr	4	2000	1	6	07	22-Oct-14	24	Blue	b	0	1.3557	L	Z	ELHN	AZKM	rr	bb	2	650	1	6	07	22-Oct-14	25	Blue	r	0	1.6124	E	D	MKJE	OLYD	rbbr	brrb	4	2000	1	6	07	22-Oct-14	26	Blue	x	1	1.3926	X	W	PXOZ	JWMH	bb	rr	2	2000	1	6	07	22-Oct-14	27	Blue	w	0	2.9253	A	S	TJAV	KMSF	bbb	rrr	3	650	1	6	07	22-Oct-14	28	Blue	e	0	3.5386	Y	W	XYLJ	ZWFE	rr	bb	2	650	1	6	07	22-Oct-14	29	Blue	b	0	1.459	W	L	HWPB	FLIX	rb	br	2	650	1	6	07	22-Oct-14	30	Blue	u	1	1.9084	K	U	VKQC	MUTH	br	rb	2	2000	1	6	07	22-Oct-14	31	Blue	w	0	1.366	F	D	JIFU	AKDM	rrr	bbb	3	650	1	6	07	22-Oct-14	32	Blue	i	1	2.2048	I	M	WFEI	OXBM	rrbb	bbrr	4	650	1	6	07	22-Oct-14	1	Red	w	0	1.5616	D	T	IDOW	RTYS	bb	rr	2	650	1	6	07	22-Oct-14	2	Red	q	0	1.7351	V	K	UOVX	QCKM	rbr	brb	3	650	1	6	07	22-Oct-14	3	Red	w	0	1.1425	E	B	EKCH	BATP	b	r	1	2000	1	6	07	22-Oct-14	4	Red	w	0	0.8814	X	R	XMFT	RIPB	b	r	1	650	1	6	07	22-Oct-14	5	Red	x	0	0.9692	Q	R	VEQJ	CWRH	brr	rbb	3	2000	1	6	07	22-Oct-14	6	Red	n	0	1.6294	Y	G	FAOY	ZRSG	rbrb	brbr	4	650	1	6	07	22-Oct-14	7	Red	a	0	2.0096	U	Y	QEUR	ITYA	bbr	rrb	3	650	1	6	07	22-Oct-14	8	Red	w	0	2.3203	A	B	FKAE	IZBO	brr	rbb	3	650	1	6	07	22-Oct-14	9	Red	i	0	2.4422	B	L	BWCU	LJPO	r	b	1	2000	1	6	07	22-Oct-14	10	Red	b	0	2.6536	U	V	WFDU	MRXV	bbrr	rrbb	4	2000	1	6	07	22-Oct-14	11	Red	g	1	2.675	G	B	GUAH	BNWX	r	b	1	650	1	6	07	22-Oct-14	12	Red	m	0	1.5306	I	U	PIJX	WUNH	rb	br	2	2000	1	6	07	22-Oct-14	13	Red	e	1	2.532	E	Z	DMES	HRZA	brr	rbb	3	2000	1	6	07	22-Oct-14	14	Red	z	1	1.2595	Z	E	XHQZ	JLIE	brbr	rbrb	4	2000	1	6	07	22-Oct-14	15	Red	c	0	1.804	K	B	AKXV	JBND	rb	br	2	650	1	6	07	22-Oct-14	16	Red	x	0	1.9839	Y	H	PYET	XHUZ	rb	br	2	650	1	6	07	22-Oct-14	17	Red	i	0	3.3653	S	V	SZPU	VQBG	r	b	1	2000	1	6	07	22-Oct-14	18	Red	k	0	1.3903	J	F	UMJH	TEFQ	rbr	brb	3	2000	1	6	07	22-Oct-14	19	Red	y	0	1.4581	H	D	JYHL	MVDZ	bbb	rrr	3	650	1	6	07	22-Oct-14	20	Red	m	0	1.2297	W	Z	RFDW	YCJZ	brbr	rbrb	4	650	1	6	07	22-Oct-14	21	Red	a	0	1.574	B	T	BDKJ	TEZH	r	b	1	2000	1	6	07	22-Oct-14	22	Red	u	0	3.0344	Z	L	EZPY	GLVR	rr	bb	2	650	1	6	07	22-Oct-14	23	Red	u	0	5.0368	D	U	SDRY	BUKP	rr	bb	2	2000	1	6	07	22-Oct-14	24	Red	b	1	1.4512	M	B	VCMR	DTBU	rbb	brr	3	2000	1	6	07	22-Oct-14	25	Red	a	1	1.8712	E	A	WSVE	DKOA	rbbb	brrr	4	650	1	6	07	22-Oct-14	26	Red	q	1	1.4349	Q	E	SQDH	YENJ	rr	bb	2	2000	1	6	07	22-Oct-14	27	Red	e	0	2.1105	G	X	JEIG	MWFX	rrrb	bbbr	4	650	1	6	07	22-Oct-14	28	Red	o	0	1.8473	A	V	ALRW	VHPI	r	b	1	650	1	6	07	22-Oct-14	29	Red	p	0	1.5274	V	D	ZXFV	PNWD	bbrr	rrbb	4	2000	1	6	07	22-Oct-14	30	Red	n	1	4.0369	N	W	NGDX	WOML	r	b	1	650	1	6	07	22-Oct-14	31	Red	o	0	1.3879	N	H	BNTE	AHCK	rb	br	2	2000	1	6	07	22-Oct-14	32	Red	e	1	0.8989	E	S	PFCE	OHLS	rrrr	bbbb	4	2000	1	6	07	22-Oct-14	1	Blue	q	1	1.7806	M	Q	WMXE	GQNR	rr	bb	2	650	1	6	07	22-Oct-14	2	Blue	z	0	1.1055	R	Y	VRFG	DYAB	rr	bb	2	650	1	6	07	22-Oct-14	3	Blue	c	1	0.9612	C	N	STCE	RFNW	brb	rbr	3	2000	1	6	07	22-Oct-14	4	Blue	b	0	1.1244	K	O	ARKP	XJOQ	rrr	bbb	3	650	1	6	07	22-Oct-14	5	Blue	a	0	1.4094	K	F	HKAE	UFIO	rb	br	2	650	1	6	07	22-Oct-14	6	Blue	r	0	1.5906	U	W	NDUX	AKWJ	brb	rbr	3	2000	1	6	07	22-Oct-14	7	Blue	o	0	2.196	X	J	VUXG	MPJF	brr	rbb	3	650	1	6	07	22-Oct-14	8	Blue	s	0	1.492	W	V	JWXQ	LVIB	rr	bb	2	2000	1	6	07	22-Oct-14	9	Blue	n	0	2.5843	C	J	VBDC	YEOJ	rbbr	brrb	4	2000	1	6	07	22-Oct-14	10	Blue	b	0	1.7631	O	E	ZOHM	SEIT	rr	bb	2	2000	1	6	07	22-Oct-14	11	Blue	i	0	6.2557	P	H	PJDQ	HBCN	r	b	1	650	1	6	07	22-Oct-14	12	Blue	x	0	1.546	X	V	TRXL	SNVZ	rbr	brb	3	650	1	6	07	22-Oct-14	13	Blue	s	0	1.6664	R	W	SUQR	KTLW	rrrb	bbbr	4	650	1	6	07	22-Oct-14	14	Blue	s	0	5.2297	Q	W	XLQS	NPWI	bbb	rrr	3	650	1	6	07	22-Oct-14	15	Blue	a	0	1.29	T	N	TWXQ	NCRH	b	r	1	2000	1	6	07	22-Oct-14	16	Blue	b	0	1.5712	W	Q	XBHW	IRJQ	rrbb	bbrr	4	650	1	6	07	22-Oct-14	17	Blue	m	0	1.5881	V	Q	RPUV	HXWQ	rbbr	brrb	4	2000	1	6	07	22-Oct-14	18	Blue	q	0	0.8021	R	D	IRJQ	CDOF	rr	bb	2	2000	1	6	07	22-Oct-14	19	Blue	a	0	1.8525	Q	H	GDMQ	RCBH	bbbb	rrrr	4	650	1	6	07	22-Oct-14	20	Blue	l	1	4.8015	L	I	QZJL	PHTI	bbrb	rrbr	4	650	1	6	07	22-Oct-14	21	Blue	y	1	2.1159	X	Y	XVOL	YEQH	r	b	1	650	1	6	07	22-Oct-14	22	Blue	y	0	3.9566	J	M	JVZO	MGKL	b	r	1	650	1	6	07	22-Oct-14	23	Blue	n	0	1.1809	I	B	IJGK	BTVY	r	b	1	650	1	6	07	22-Oct-14	24	Blue	w	0	1.89	O	D	FHOM	VCDN	rbr	brb	3	2000	1	6	07	22-Oct-14	25	Blue	x	0	2.5482	O	Q	LOTW	JQSY	br	rb	2	650	1	6	07	22-Oct-14	26	Blue	c	0	4.0028	L	Z	HKWL	ACMZ	bbbb	rrrr	4	2000	1	6	07	22-Oct-14	27	Blue	q	0	0.8664	W	F	WJIS	FATK	r	b	1	2000	1	6	07	22-Oct-14	28	Blue	h	0	3.3685	A	M	BARH	TMVQ	bb	rr	2	2000	1	6	07	22-Oct-14	29	Blue	o	0	0.7583	I	X	IVMA	XGPU	r	b	1	2000	1	6	07	22-Oct-14	30	Blue	m	0	0.7693	Q	I	MEQW	RHIV	brb	rbr	3	2000	1	6	07	22-Oct-14	31	Blue	h	1	1.114	H	I	HZWE	IYVF	b	r	1	2000	1	6	07	22-Oct-14	32	Blue	x	0	0.5158	E	T	ZYGE	POBT	bbrr	rrbb	4	2000	1	6	08	22-Oct-14	1	Blue	g	1	1.242	G	W	AG	OW	bb	rr	2	2006	1	4	18	22-Oct-14	2	Blue	l	1	0.6028	L	Q	EL	NQ	rb	br	2	2006	1	4	18	22-Oct-14	3	Blue	z	1	0.6817	L	Z	GL	CZ	br	rb	2	646	1	4	18	22-Oct-14	4	Blue	q	1	0.4301	I	Q	EI	DQ	br	rb	2	646	1	4	18	22-Oct-14	5	Blue	z	1	0.6675	Z	I	FZ	EI	rb	br	2	2006	1	4	18	22-Oct-14	6	Blue	t	1	0.2493	S	T	GS	XT	br	rb	2	2006	1	4	18	22-Oct-14	7	Blue	m	1	0.5644	A	M	UA	ZM	rr	bb	2	646	1	4	18	22-Oct-14	8	Blue	d	1	0.5245	D	N	UD	JN	rb	br	2	646	1	4	18	22-Oct-14	9	Blue	p	1	1.1904	P	D	ZP	YD	rb	br	2	2006	1	4	18	22-Oct-14	10	Blue	k	1	0.386	K	T	AK	JT	bb	rr	2	2006	1	4	18	22-Oct-14	11	Blue	x	1	0.9281	X	P	MX	YP	bb	rr	2	646	1	4	18	22-Oct-14	12	Blue	q	1	5.5639	Q	B	OQ	DB	bb	rr	2	2006	1	4	18	22-Oct-14	13	Blue	c	1	0.4459	C	J	XC	BJ	bb	rr	2	2006	1	4	18	22-Oct-14	14	Blue	w	0	1.6098	M	A	CM	LA	rr	bb	2	646	1	4	18	22-Oct-14	15	Blue	i	1	0.7572	G	I	BG	RI	rr	bb	2	646	1	4	18	22-Oct-14	16	Blue	r	0	1.3176	L	U	GL	NU	rb	br	2	646	1	4	18	22-Oct-14	1	Red	w	0	0.7928	X	I	FX	RI	br	rb	2	647	1	4	18	22-Oct-14	2	Red	j	1	0.5532	J	T	WJ	IT	rr	bb	2	2006	1	4	18	22-Oct-14	3	Red	m	0	1.7708	W	G	TW	MG	br	rb	2	647	1	4	18	22-Oct-14	4	Red	v	1	1.9693	W	V	XW	DV	rb	br	2	647	1	4	18	22-Oct-14	5	Red	y	1	0.3853	V	Y	LV	GY	rb	br	2	2006	1	4	18	22-Oct-14	6	Red	n	1	1.5443	K	N	QK	BN	rb	br	2	2006	1	4	18	22-Oct-14	7	Red	q	1	0.4721	Q	D	MQ	OD	rr	bb	2	2006	1	4	18	22-Oct-14	8	Red	i	1	0.5246	I	W	RI	MW	br	rb	2	2006	1	4	18	22-Oct-14	9	Red	b	1	1.9505	B	N	EB	SN	br	rb	2	647	1	4	18	22-Oct-14	10	Red	s	1	0.3029	S	E	DS	WE	rr	bb	2	2006	1	4	18	22-Oct-14	11	Red	k	0	0.8407	Q	V	WQ	KV	br	rb	2	647	1	4	18	22-Oct-14	12	Red	b	0	1.1429	Q	Y	MQ	IY	rb	br	2	647	1	4	18	22-Oct-14	13	Red	m	0	0.0758	X	I	HX	OI	rr	bb	2	2006	1	4	18	22-Oct-14	14	Red	z	1	0.9892	Z	B	QZ	VB	rr	bb	2	647	1	4	18	22-Oct-14	15	Red	d	1	0.4874	E	D	TE	WD	rb	br	2	2006	1	4	18	22-Oct-14	16	Red	s	1	0.9149	S	H	FS	PH	br	rb	2	647	1	4	18	22-Oct-14	1	Blue	s	1	3.3498	X	S	GOTX	PMBS	brbr	rbrb	4	646	1	4	18	22-Oct-14	2	Blue	g	1	0.6401	G	Y	PIUG	HMDY	brbb	rbrr	4	2006	1	4	18	22-Oct-14	3	Blue	z	1	0.6807	Z	P	BTLZ	OAKP	rrrb	bbbr	4	646	1	4	18	22-Oct-14	4	Blue	m	1	0.665	X	M	NFTX	AHKM	rbbr	brrb	4	2006	1	4	18	22-Oct-14	5	Blue	q	0	0.8719	M	P	HLEM	YIGP	rrbr	bbrb	4	646	1	4	18	22-Oct-14	6	Blue	y	1	0.9517	Y	G	IABY	NQKG	rrbb	bbrr	4	646	1	4	18	22-Oct-14	7	Blue	q	0	1.2292	M	Z	CTDM	ALQZ	rrrr	bbbb	4	646	1	4	18	22-Oct-14	8	Blue	e	1	0.896	E	N	JOAE	CDPN	bbbb	rrrr	4	646	1	4	18	22-Oct-14	9	Blue	d	1	0.417	V	D	APSV	XQBD	rbbr	brrb	4	2006	1	4	18	22-Oct-14	10	Blue	p	1	0.6992	P	X	ZLGP	WRBX	rbrb	brbr	4	2006	1	4	18	22-Oct-14	11	Blue	v	1	0.8649	V	N	OPDV	YTHN	brrb	rbbr	4	646	1	4	18	22-Oct-14	12	Blue	w	1	0.595	W	D	FXPW	YTGD	brrb	rbbr	4	2006	1	4	18	22-Oct-14	13	Blue	d	1	0.7399	D	G	AEKD	PSTG	brrb	rbbr	4	646	1	4	18	22-Oct-14	14	Blue	i	1	0.3705	I	K	NGAI	VWUK	rrrb	bbbr	4	2006	1	4	18	22-Oct-14	15	Blue	q	1	0.4938	Q	E	NFMQ	YCRE	brbb	rbrr	4	2006	1	4	18	22-Oct-14	16	Blue	s	1	0.5728	S	H	PDQS	WIRH	rbrb	brbr	4	2006	1	4	18	22-Oct-14	1	Red	w	1	0.5442	W	O	ZKTW	XDFO	rrrr	bbbb	4	2006	1	4	18	22-Oct-14	2	Red	v	1	1.1869	J	V	TRIJ	QUDV	bbbb	rrrr	4	647	1	4	18	22-Oct-14	3	Red	e	1	0.3621	E	O	YMNE	DUWO	bbbr	rrrb	4	2006	1	4	18	22-Oct-14	4	Red	w	0	2.9476	M	K	ULPM	EORK	rbrr	brbb	4	647	1	4	18	22-Oct-14	5	Red	e	1	1.0266	E	G	HIBE	WPDG	bbbr	rrrb	4	647	1	4	18	22-Oct-14	6	Red	f	1	0.8135	F	H	GPQF	VZSH	rrbr	bbrb	4	647	1	4	18	22-Oct-14	7	Red	t	1	0.8716	S	T	PFNS	IQZT	rrrb	bbbr	4	647	1	4	18	22-Oct-14	8	Red	x	1	0.2248	R	X	VNBR	FTUX	rrrb	bbbr	4	2006	1	4	18	22-Oct-14	9	Red	t	1	0.4962	C	T	SKLC	YJDT	rrbb	bbrr	4	2006	1	4	18	22-Oct-14	10	Red	t	1	0.575	X	T	AQJX	UMYT	rrrb	bbbr	4	2006	1	4	18	22-Oct-14	11	Red	b	1	1.001	I	B	QWCI	DJMB	brbb	rbrr	4	647	1	4	18	22-Oct-14	12	Red	s	1	0.9964	T	S	FVRT	KCGS	brbb	rbrr	4	647	1	4	18	22-Oct-14	13	Red	y	1	0.6103	Y	A	QKBY	MPJA	rbrr	brbb	4	2006	1	4	18	22-Oct-14	14	Red	b	1	0.4529	X	B	ASOX	YDFB	bbrb	rrbr	4	2006	1	4	18	22-Oct-14	15	Red	g	1	1.1152	L	G	SIQL	CFAG	rbrb	brbr	4	647	1	4	18	22-Oct-14	16	Red	w	1	0.4288	V	W	NGFV	MSUW	bbrb	rrbr	4	2006	1	4	18	22-Oct-14	1	Blue	m	0	1.873	O	G	O	G	r	b	1	2006	1	4	18	22-Oct-14	2	Blue	t	1	1.7855	T	K	T	K	b	r	1	646	1	4	18	22-Oct-14	3	Blue	v	1	0.4867	B	V	B	V	r	b	1	2006	1	4	18	22-Oct-14	4	Blue	f	1	0.3297	C	F	C	F	r	b	1	2006	1	4	18	22-Oct-14	5	Blue	l	1	0.9048	L	Z	L	Z	b	r	1	646	1	4	18	22-Oct-14	6	Blue	x	1	0.8192	Y	X	Y	X	r	b	1	646	1	4	18	22-Oct-14	7	Blue	n	1	0.9058	J	N	J	N	r	b	1	646	1	4	18	22-Oct-14	8	Blue	a	1	0.6439	D	A	D	A	r	b	1	646	1	4	18	22-Oct-14	9	Blue	q	1	2.969	Q	P	Q	P	b	r	1	2006	1	4	18	22-Oct-14	10	Blue	j	1	0.4919	Y	J	Y	J	r	b	1	2006	1	4	18	22-Oct-14	11	Blue	z	1	0.4137	Q	Z	Q	Z	r	b	1	2006	1	4	18	22-Oct-14	12	Blue	u	1	1.122	U	J	U	J	b	r	1	646	1	4	18	22-Oct-14	13	Blue	d	1	0.342	Q	D	Q	D	r	b	1	2006	1	4	18	22-Oct-14	14	Blue	o	0	1.6047	R	X	R	X	b	r	1	646	1	4	18	22-Oct-14	15	Blue	w	1	0.9664	L	W	L	W	r	b	1	646	1	4	18	22-Oct-14	16	Blue	b	1	0.5207	Z	B	Z	B	r	b	1	2006	1	4	18	22-Oct-14	1	Red	w	1	0.9901	W	T	W	T	r	b	1	647	1	4	18	22-Oct-14	2	Red	a	1	0.5904	A	M	A	M	r	b	1	2006	1	4	18	22-Oct-14	3	Red	u	1	2.0126	G	U	G	U	b	r	1	647	1	4	18	22-Oct-14	4	Red	e	1	0.5543	Q	E	Q	E	b	r	1	2006	1	4	18	22-Oct-14	5	Red	t	1	0.5063	T	V	T	V	r	b	1	2006	1	4	18	22-Oct-14	6	Red	x	1	1.0746	N	X	N	X	b	r	1	647	1	4	18	22-Oct-14	7	Red	w	0	0.8956	Z	V	Z	V	r	b	1	647	1	4	18	22-Oct-14	8	Red	m	1	0.2595	D	M	D	M	b	r	1	2006	1	4	18	22-Oct-14	9	Red	t	1	0.9248	M	T	M	T	b	r	1	647	1	4	18	22-Oct-14	10	Red	n	0	0.7118	N	G	N	G	b	r	1	2006	1	4	18	22-Oct-14	11	Red	u	1	0.3776	U	E	U	E	r	b	1	2006	1	4	18	22-Oct-14	12	Red	k	1	1.0714	O	K	O	K	b	r	1	647	1	4	18	22-Oct-14	13	Red	w	1	2.045	P	W	P	W	b	r	1	647	1	4	18	22-Oct-14	14	Red	l	1	0.9279	Q	L	Q	L	b	r	1	647	1	4	18	22-Oct-14	15	Red	t	1	0.2826	I	T	I	T	b	r	1	2006	1	4	18	22-Oct-14	16	Red	m	1	0.2915	M	D	M	D	r	b	1	2006	1	4	18	22-Oct-14	1	Blue	p	1	0.3191	H	P	TMH	LRP	rrr	bbb	3	2006	1	4	18	22-Oct-14	2	Blue	x	1	0.2741	Q	X	OWQ	GVX	rrr	bbb	3	2006	1	4	18	22-Oct-14	3	Blue	h	1	0.719	B	H	EKB	OCH	brr	rbb	3	2006	1	4	18	22-Oct-14	4	Blue	q	1	0.4446	D	Q	OZD	NGQ	brr	rbb	3	2006	1	4	18	22-Oct-14	5	Blue	g	1	1.2098	N	G	XIN	MDG	bbr	rrb	3	647	1	4	18	22-Oct-14	6	Blue	p	1	0.7963	T	P	RIT	SZP	rrr	bbb	3	647	1	4	18	22-Oct-14	7	Blue	q	0	0.2796	V	G	XHV	QCG	rbb	brr	3	2006	1	4	18	22-Oct-14	8	Blue	w	1	0.5399	P	W	CSP	XGW	rbr	brb	3	2006	1	4	18	22-Oct-14	9	Blue	w	1	1.1014	Q	W	RDQ	FCW	brr	rbb	3	647	1	4	18	22-Oct-14	10	Blue	t	1	0.8761	T	I	FYT	PDI	bbb	rrr	3	647	1	4	18	22-Oct-14	11	Blue	w	1	1.0178	W	G	HDW	BLG	bbb	rrr	3	647	1	4	18	22-Oct-14	12	Blue	m	1	0.3011	R	M	VDR	NHM	brr	rbb	3	2006	1	4	18	22-Oct-14	13	Blue	o	1	0.8471	O	P	QUO	VJP	brb	rbr	3	647	1	4	18	22-Oct-14	14	Blue	i	1	0.3205	I	T	ZEI	BHT	rbb	brr	3	2006	1	4	18	22-Oct-14	15	Blue	l	1	0.6979	U	L	NSU	GPL	rbr	brb	3	647	1	4	18	22-Oct-14	16	Blue	d	0	0.8144	O	K	SCO	HUK	rbb	brr	3	647	1	4	18	22-Oct-14	1	Red	f	1	0.4496	F	I	QRF	NGI	bbr	rrb	3	647	1	4	18	22-Oct-14	2	Red	l	1	0.4952	X	L	CWX	TIL	bbb	rrr	3	2006	1	4	18	22-Oct-14	3	Red	z	1	0.4613	D	Z	AND	XLZ	rrb	bbr	3	2006	1	4	18	22-Oct-14	4	Red	e	1	0.7701	E	H	LWE	QUH	rbr	brb	3	647	1	4	18	22-Oct-14	5	Red	l	1	0.2617	L	M	IAL	GDM	rrr	bbb	3	2006	1	4	18	22-Oct-14	6	Red	k	1	0.2987	V	K	OLV	CFK	rbb	brr	3	2006	1	4	18	22-Oct-14	7	Red	m	0	1.4448	D	J	GRD	KFJ	brb	rbr	3	647	1	4	18	22-Oct-14	8	Red	s	1	0.3212	S	U	OAS	PIU	rbr	brb	3	2006	1	4	18	22-Oct-14	9	Red	c	1	0.867	G	C	UOG	BEC	brb	rbr	3	647	1	4	18	22-Oct-14	10	Red	t	1	0.7533	T	D	BAT	OQD	brr	rbb	3	647	1	4	18	22-Oct-14	11	Red	q	1	0.7084	Q	B	FAQ	EPB	brr	rbb	3	647	1	4	18	22-Oct-14	12	Red	m	0	1.3138	L	W	TEL	MGW	rbb	brr	3	2006	1	4	18	22-Oct-14	13	Red	t	1	0.3622	O	T	FHO	KDT	brb	rbr	3	2006	1	4	18	22-Oct-14	14	Red	e	1	0.6502	Y	E	WNY	RGE	rrb	bbr	3	647	1	4	18	22-Oct-14	15	Red	x	1	0.5697	Q	X	NAQ	VJX	brb	rbr	3	2006	1	4	18	22-Oct-14	16	Red	r	1	0.9715	R	T	AER	UCT	brr	rbb	3	647	1	4	18	22-Oct-14	1	Blue	t	1	1.1815	T	A	TZQH	AGNE	b	r	1	646	1	4	08	22-Oct-14	2	Blue	y	1	0.9363	N	Y	CNBS	AYRT	rr	bb	2	2005	1	4	08	22-Oct-14	3	Blue	r	1	1.1015	S	R	FCSZ	PARK	rrr	bbb	3	646	1	4	08	22-Oct-14	4	Blue	d	1	1.7292	D	M	DFOJ	MATG	b	r	1	646	1	4	08	22-Oct-14	5	Blue	u	1	1.312	U	O	UTZI	OFYE	b	r	1	2005	1	4	08	22-Oct-14	6	Blue	z	1	1.1584	H	Z	VHKG	EZFY	rr	bb	2	2005	1	4	08	22-Oct-14	7	Blue	q	1	0.7426	Q	N	UHEQ	RJAN	rrbb	bbrr	4	2005	1	4	08	22-Oct-14	8	Blue	c	1	1.2503	C	D	WYCQ	KIDL	brb	rbr	3	2005	1	4	08	22-Oct-14	9	Blue	l	1	0.9222	L	Q	LKCD	QRIA	b	r	1	2005	1	4	08	22-Oct-14	10	Blue	i	1	0.8857	R	I	ZRNO	LIWK	rr	bb	2	2005	1	4	08	22-Oct-14	11	Blue	q	1	1.0911	Q	B	DQUZ	TBRI	rb	br	2	646	1	4	08	22-Oct-14	12	Blue	x	0	1.1072	E	H	DIEF	AZHP	bbr	rrb	3	2005	1	4	08	22-Oct-14	13	Blue	g	1	0.3246	G	U	THWG	NIRU	brrb	rbbr	4	2005	1	4	08	22-Oct-14	14	Blue	q	1	1.5265	G	Q	VNGK	HPQD	brr	rbb	3	646	1	4	08	22-Oct-14	15	Blue	w	0	2.0607	G	D	SGAW	KDZF	bb	rr	2	646	1	4	08	22-Oct-14	16	Blue	b	0	1.4977	M	K	NMZV	RKIB	rr	bb	2	2005	1	4	08	22-Oct-14	17	Blue	m	0	0.9258	Q	S	HTLQ	GONS	bbbr	rrrb	4	2005	1	4	08	22-Oct-14	18	Blue	d	1	1.3772	D	K	DYLG	KUFW	b	r	1	2005	1	4	08	22-Oct-14	19	Blue	l	1	1.1113	Q	L	JMQA	YRLG	rrr	bbb	3	2005	1	4	08	22-Oct-14	20	Blue	b	1	1.4184	B	K	BUIL	KCEA	b	r	1	646	1	4	08	22-Oct-14	21	Blue	w	0	2.2206	G	Y	OGIN	ZYWU	bb	rr	2	646	1	4	08	22-Oct-14	22	Blue	i	1	1.5246	I	W	RECI	ULFW	rbrb	brbr	4	646	1	4	08	22-Oct-14	23	Blue	f	1	1.2261	R	F	RSVT	FKYL	r	b	1	646	1	4	08	22-Oct-14	24	Blue	m	1	3.1501	M	W	DOMG	YNWA	rrb	bbr	3	2005	1	4	08	22-Oct-14	25	Blue	z	1	0.864	R	Z	PHCR	XKJZ	bbbr	rrrb	4	2005	1	4	08	22-Oct-14	26	Blue	w	0	1.1919	H	N	REWH	UPSN	rbrb	brbr	4	646	1	4	08	22-Oct-14	27	Blue	b	0	1.7378	U	E	AURI	TEFY	bb	rr	2	646	1	4	08	22-Oct-14	28	Blue	z	1	1.1076	Z	A	FLWZ	QYPA	rbrb	brbr	4	646	1	4	08	22-Oct-14	29	Blue	u	1	1.1853	D	U	XQDO	RGUI	brr	rbb	3	646	1	4	08	22-Oct-14	30	Blue	z	1	1.0218	Z	M	FPOZ	KGJM	rrbb	bbrr	4	646	1	4	08	22-Oct-14	31	Blue	w	0	1.9436	V	I	ECVH	JKIU	rrb	bbr	3	646	1	4	08	22-Oct-14	32	Blue	f	1	0.1268	O	F	OHYX	FWGN	r	b	1	2005	1	4	08	22-Oct-14	1	Red	w	0	0.8059	K	O	DEZK	LJNO	brbr	rbrb	4	2006	1	4	08	22-Oct-14	2	Red	s	1	1.133	H	S	THYE	GSAR	rb	br	2	2006	1	4	08	22-Oct-14	3	Red	b	1	0.6619	B	F	IYAB	JUOF	rbrr	brbb	4	2006	1	4	08	22-Oct-14	4	Red	v	0	3.3137	Y	X	YQTB	XRCF	b	r	1	646	1	4	08	22-Oct-14	5	Red	w	0	2.1051	R	B	PRMA	YBSJ	rr	bb	2	646	1	4	08	22-Oct-14	6	Red	c	1	1.4141	Q	C	NSVQ	KBYC	brbb	rbrr	4	646	1	4	08	22-Oct-14	7	Red	o	0	1.2565	Z	Q	SZCG	IQNT	bb	rr	2	646	1	4	08	22-Oct-14	8	Red	c	1	1.561	V	C	XVAJ	TCOP	bb	rr	2	2006	1	4	08	22-Oct-14	9	Red	q	0	1.4709	O	Z	PEOD	UJZG	rrb	bbr	3	646	1	4	08	22-Oct-14	10	Red	o	1	2.2943	O	S	OATB	SZMI	r	b	1	646	1	4	08	22-Oct-14	11	Red	w	1	1.0127	F	W	BRFH	CTWY	rbb	brr	3	2006	1	4	08	22-Oct-14	12	Red	e	1	0.9752	F	E	ONGF	XHZE	bbbb	rrrr	4	646	1	4	08	22-Oct-14	13	Red	p	1	1.0034	W	P	LTXW	BCAP	rbrb	brbr	4	646	1	4	08	22-Oct-14	14	Red	k	0	1.965	U	Z	XKUQ	TCZY	brr	rbb	3	646	1	4	08	22-Oct-14	15	Red	k	1	2.7542	K	M	KUJZ	MYVH	r	b	1	646	1	4	08	22-Oct-14	16	Red	s	1	0.7924	Q	S	OYDQ	FNRS	brbb	rbrr	4	646	1	4	08	22-Oct-14	17	Red	a	1	1.2901	T	A	SCTX	ILAW	bbb	rrr	3	646	1	4	08	22-Oct-14	18	Red	x	1	1.1054	G	X	QRGN	TWXB	rrb	bbr	3	646	1	4	08	22-Oct-14	19	Red	r	0	0.9517	O	U	WOGC	MULB	bb	rr	2	2006	1	4	08	22-Oct-14	20	Red	j	1	0.9543	F	J	EFOL	DJRC	rb	br	2	646	1	4	08	22-Oct-14	21	Red	l	1	0.9346	L	V	RWLA	HCVS	rrr	bbb	3	2006	1	4	08	22-Oct-14	22	Red	n	1	1.1617	N	Z	NQXO	ZGUY	r	b	1	2006	1	4	08	22-Oct-14	23	Red	g	1	1.0762	G	E	GQBA	ENDU	r	b	1	2006	1	4	08	22-Oct-14	24	Red	s	1	1.3709	H	S	MHTB	KSZQ	bb	rr	2	2006	1	4	08	22-Oct-14	25	Red	h	1	1.2061	H	U	HTPN	UAXJ	r	b	1	2006	1	4	08	22-Oct-14	26	Red	p	1	0.9786	P	B	FLPN	GUBD	rrr	bbb	3	2006	1	4	08	22-Oct-14	27	Red	i	1	0.7445	F	I	OJWF	SLGI	brbb	rbrr	4	2006	1	4	08	22-Oct-14	28	Red	j	1	1.1169	U	J	ANUT	CFJI	brb	rbr	3	2006	1	4	08	22-Oct-14	29	Red	n	0	1.4004	I	A	IYGO	AMEW	r	b	1	646	1	4	08	22-Oct-14	30	Red	d	1	0.8402	D	N	KEAD	ZHYN	rbrr	brbb	4	2006	1	4	08	22-Oct-14	31	Red	m	0	1.5891	M	N	MQCX	NFVI	b	r	1	2006	1	4	08	22-Oct-14	32	Red	n	0	1.0656	Z	E	AZRT	IEBC	rr	bb	2	646	1	4	08	22-Oct-14	1	Blue	a	1	0.9529	A	D	ATBQ	DJIR	b	r	1	2006	1	4	08	22-Oct-14	2	Blue	n	0	1.7014	Q	W	HZYQ	BMDW	rrbr	bbrb	4	647	1	4	08	22-Oct-14	3	Blue	f	1	1.2131	Y	F	YLOI	FSWJ	r	b	1	647	1	4	08	22-Oct-14	4	Blue	q	1	1.1825	N	Q	NOIJ	QTUK	r	b	1	2006	1	4	08	22-Oct-14	5	Blue	i	1	1.1999	I	E	IYHS	ECFP	b	r	1	647	1	4	08	22-Oct-14	6	Blue	m	0	1.5099	Q	O	XMTQ	CYBO	rrbb	bbrr	4	2006	1	4	08	22-Oct-14	7	Blue	h	1	1.3803	Z	H	ZFEL	HNQG	r	b	1	647	1	4	08	22-Oct-14	8	Blue	i	1	1.5035	W	I	LWVS	FIDG	rr	bb	2	647	1	4	08	22-Oct-14	9	Blue	s	1	1.0139	M	S	MTJU	SVHB	r	b	1	2006	1	4	08	22-Oct-14	10	Blue	m	0	1.185	L	X	FILA	TYXO	rrr	bbb	3	2006	1	4	08	22-Oct-14	11	Blue	i	0	4.4682	G	Q	LBGW	MDQO	rbr	brb	3	647	1	4	08	22-Oct-14	12	Blue	c	1	1.8107	C	N	COPF	NDHY	b	r	1	647	1	4	08	22-Oct-14	13	Blue	r	1	0.5239	I	R	JGYI	DTCR	rrbr	bbrb	4	2006	1	4	08	22-Oct-14	14	Blue	c	1	0.7528	F	C	JUPF	QGBC	rrbr	bbrb	4	2006	1	4	08	22-Oct-14	15	Blue	y	1	1.8263	Y	Z	BYVO	RZCD	bb	rr	2	647	1	4	08	22-Oct-14	16	Blue	b	1	1.0575	B	K	PXNB	CTUK	bbrb	rrbr	4	647	1	4	08	22-Oct-14	17	Blue	i	1	0.9142	I	T	JBIK	SNTY	rrb	bbr	3	2006	1	4	08	22-Oct-14	18	Blue	w	0	1.5194	N	X	JGNL	IKXC	rbr	brb	3	647	1	4	08	22-Oct-14	19	Blue	o	1	0.9748	O	D	XOIR	GDAU	rb	br	2	2006	1	4	08	22-Oct-14	20	Blue	q	1	2.7228	Q	O	DTYQ	ZPXO	brbb	rbrr	4	647	1	4	08	22-Oct-14	21	Blue	b	1	0.5882	B	K	NOAB	HTPK	bbbb	rrrr	4	2006	1	4	08	22-Oct-14	22	Blue	o	1	0.8854	N	O	BVNH	CWOQ	brr	rbb	3	2006	1	4	08	22-Oct-14	23	Blue	k	1	1.2434	Q	K	PQYR	EKDZ	br	rb	2	2006	1	4	08	22-Oct-14	24	Blue	d	1	0.8365	A	D	ROAS	KIDW	rrr	bbb	3	647	1	4	08	22-Oct-14	25	Blue	l	1	1.2426	L	W	ULSY	EWBQ	rb	br	2	647	1	4	08	22-Oct-14	26	Blue	g	1	1.9736	C	G	PAYC	OSMG	rbrr	brbb	4	647	1	4	08	22-Oct-14	27	Blue	y	1	0.9031	M	Y	WVME	SLYG	rrr	bbb	3	2006	1	4	08	22-Oct-14	28	Blue	r	0	1.5542	K	G	ZKAO	DGIL	br	rb	2	647	1	4	08	22-Oct-14	29	Blue	e	1	0.9609	E	R	VEFQ	SRGU	bb	rr	2	2006	1	4	08	22-Oct-14	30	Blue	g	1	1.2523	G	F	YIGH	TSFR	bbb	rrr	3	647	1	4	08	22-Oct-14	31	Blue	n	1	1.1798	C	N	CQLD	NGEK	r	b	1	2006	1	4	08	22-Oct-14	32	Blue	v	1	1.103	V	N	GVZO	DNTB	bb	rr	2	2006	1	4	08	22-Oct-14	1	Red	g	1	0.8163	O	G	KOXB	TGEU	bb	rr	2	646	1	4	08	22-Oct-14	2	Red	f	1	0.7188	F	V	BFZI	DVYU	br	rb	2	646	1	4	08	22-Oct-14	3	Red	r	1	1.4186	R	F	CORU	HZFP	rrr	bbb	3	646	1	4	08	22-Oct-14	4	Red	k	1	0.9254	K	O	YBKG	FROX	bbr	rrb	3	646	1	4	08	22-Oct-14	5	Red	z	1	0.4856	Z	D	HREZ	GTOD	bbbr	rrrb	4	2006	1	4	08	22-Oct-14	6	Red	f	1	1.0654	F	O	WFNX	IOYJ	rr	bb	2	2006	1	4	08	22-Oct-14	7	Red	t	0	1.207	T	N	TSEV	NJXZ	b	r	1	646	1	4	08	22-Oct-14	8	Red	r	0	1.1873	Y	Q	WBGY	EPMQ	rrbb	bbrr	4	646	1	4	08	22-Oct-14	9	Red	n	1	1.4796	W	N	AYMW	XKHN	rbrb	brbr	4	646	1	4	08	22-Oct-14	10	Red	h	1	1.1048	Q	H	LQDA	PHBC	rb	br	2	2006	1	4	08	22-Oct-14	11	Red	p	1	0.8289	P	G	PHTB	GDWL	r	b	1	2006	1	4	08	22-Oct-14	12	Red	a	1	1.1265	S	A	WFST	RNAJ	rbb	brr	3	2006	1	4	08	22-Oct-14	13	Red	v	1	1.0598	V	M	BLVJ	IWMN	rrr	bbb	3	646	1	4	08	22-Oct-14	14	Red	h	1	1.1937	H	P	HNGK	PDUC	r	b	1	2006	1	4	08	22-Oct-14	15	Red	z	0	1.907	Z	N	ZXRT	NFUD	b	r	1	2006	1	4	08	22-Oct-14	16	Red	t	1	0.2968	G	T	QENG	FOZT	rrrb	bbbr	4	2006	1	4	08	22-Oct-14	17	Red	y	1	1.601	C	Y	CBUH	YMAX	b	r	1	646	1	4	08	22-Oct-14	18	Red	z	1	0.6955	D	Z	ILBD	RFTZ	bbbb	rrrr	4	646	1	4	08	22-Oct-14	19	Red	j	1	1.0896	D	J	DOAY	JVSL	b	r	1	646	1	4	08	22-Oct-14	20	Red	n	1	0.6951	D	N	SDLX	YNKZ	bb	rr	2	646	1	4	08	22-Oct-14	21	Red	t	1	1.0359	J	T	PJBZ	HTUL	rb	br	2	2006	1	4	08	22-Oct-14	22	Red	d	0	2.4279	K	A	RGKT	DCAO	rrr	bbb	3	646	1	4	08	22-Oct-14	23	Red	f	1	0.5589	Y	F	LANY	IGVF	brrb	rbbr	4	2006	1	4	08	22-Oct-14	24	Red	k	1	0.8098	K	C	OSKF	EVCJ	brr	rbb	3	2006	1	4	08	22-Oct-14	25	Red	f	1	0.5819	F	Y	VGIF	UNRY	bbrr	rrbb	4	2006	1	4	08	22-Oct-14	26	Red	p	1	1.0395	T	P	XHTG	IFPS	rbb	brr	3	2006	1	4	08	22-Oct-14	27	Red	j	1	0.8388	J	A	GJLP	KAYI	rr	bb	2	646	1	4	08	22-Oct-14	28	Red	q	1	0.8917	Q	F	QJVN	FWYP	r	b	1	646	1	4	08	22-Oct-14	29	Red	w	0	1.0982	F	W	HRMF	AOIW	brbr	rbrb	4	646	1	4	08	22-Oct-14	30	Red	r	1	1.1707	R	Z	MCRD	LJZN	brr	rbb	3	2006	1	4	08	22-Oct-14	31	Red	f	1	1.1506	W	F	RWZD	XFOB	bb	rr	2	2006	1	4	08	22-Oct-14	32	Red	z	1	0.8972	W	Z	WKYT	ZGSL	b	r	1	2006	1	4	09	29-Oct-14	1	Blue	w	0	1.009	B	L	B	L	b	r	1	2006	1	4	19	29-Oct-14	2	Blue	d	1	0.5276	D	B	D	B	b	r	1	2006	1	4	19	29-Oct-14	3	Blue	w	0	0.0011	P	L	P	L	b	r	1	2006	1	4	19	29-Oct-14	4	Blue	b	0	0.828	M	Z	M	Z	b	r	1	2006	1	4	19	29-Oct-14	5	Blue	t	0	1.3534	F	L	F	L	r	b	1	647	1	4	19	29-Oct-14	6	Blue	b	1	0.3092	B	T	B	T	b	r	1	2006	1	4	19	29-Oct-14	7	Blue	q	0	1.0213	F	Z	F	Z	b	r	1	2006	1	4	19	29-Oct-14	8	Blue	a	0	1.3798	K	J	K	J	b	r	1	647	1	4	19	29-Oct-14	9	Blue	x	1	0.3675	X	R	X	R	b	r	1	2006	1	4	19	29-Oct-14	10	Blue	i	1	1.1494	I	S	I	S	b	r	1	647	1	4	19	29-Oct-14	11	Blue	s	0	0.3763	T	F	T	F	r	b	1	2006	1	4	19	29-Oct-14	12	Blue	p	0	1.2453	G	P	G	P	b	r	1	647	1	4	19	29-Oct-14	13	Blue	l	1	0.725	L	F	L	F	b	r	1	647	1	4	19	29-Oct-14	14	Blue	p	1	0.7019	I	P	I	P	r	b	1	647	1	4	19	29-Oct-14	15	Blue	q	0	1.0163	N	G	N	G	r	b	1	647	1	4	19	29-Oct-14	16	Blue	a	1	0.8561	B	A	B	A	r	b	1	647	1	4	19	29-Oct-14	1	Red	y	1	1.1841	Y	R	Y	R	r	b	1	2006	1	4	19	29-Oct-14	2	Red	q	1	0.9773	Q	B	Q	B	r	b	1	647	1	4	19	29-Oct-14	3	Red	d	0	0.5309	K	P	K	P	r	b	1	647	1	4	19	29-Oct-14	4	Red	i	1	0.5631	I	H	I	H	r	b	1	647	1	4	19	29-Oct-14	5	Red	d	1	0.8576	D	U	D	U	r	b	1	647	1	4	19	29-Oct-14	6	Red	c	1	1.2224	S	C	S	C	b	r	1	2006	1	4	19	29-Oct-14	7	Red	m	1	1.487	M	G	M	G	r	b	1	2006	1	4	19	29-Oct-14	8	Red	s	1	0.3821	U	S	U	S	b	r	1	2006	1	4	19	29-Oct-14	9	Red	r	1	1.0596	D	R	D	R	b	r	1	647	1	4	19	29-Oct-14	10	Red	a	1	0.5373	F	A	F	A	b	r	1	2006	1	4	19	29-Oct-14	11	Red	r	1	0.5616	T	R	T	R	b	r	1	2006	1	4	19	29-Oct-14	12	Red	s	1	0.2974	W	S	W	S	b	r	1	2006	1	4	19	29-Oct-14	13	Red	a	0	0.8896	S	E	S	E	r	b	1	647	1	4	19	29-Oct-14	14	Red	s	1	0.3096	D	S	D	S	b	r	1	2006	1	4	19	29-Oct-14	15	Red	q	0	1.6686	P	W	P	W	b	r	1	647	1	4	19	29-Oct-14	16	Red	y	1	1.4692	Y	C	Y	C	r	b	1	647	1	4	19	29-Oct-14	1	Blue	w	1	0.5439	W	Q	JRXW	TASQ	rrrb	bbbr	4	2006	1	4	19	29-Oct-14	2	Blue	a	0	1.434	Z	G	VNWZ	LJXG	rbbb	brrr	4	647	1	4	19	29-Oct-14	3	Blue	q	0	1.8554	V	I	SMTV	OAYI	brbr	rbrb	4	647	1	4	19	29-Oct-14	4	Blue	z	0	2.5168	N	Z	HJQN	WKMZ	rrrb	bbbr	4	647	1	4	19	29-Oct-14	5	Blue	r	0	0.5964	I	G	YTXI	LWVG	rrbr	bbrb	4	2006	1	4	19	29-Oct-14	6	Blue	z	1	0.7841	C	Z	MWXC	AGVZ	rrrr	bbbb	4	2006	1	4	19	29-Oct-14	7	Blue	y	1	0.8204	Y	Z	FRLY	CQWZ	brrb	rbbr	4	2006	1	4	19	29-Oct-14	8	Blue	j	1	0.4727	J	M	UASJ	YHNM	bbbb	rrrr	4	2006	1	4	19	29-Oct-14	9	Blue	h	1	0.79	B	H	YEQB	TPVH	brrr	rbbb	4	647	1	4	19	29-Oct-14	10	Blue	r	0	1.0031	U	H	EGOU	RPIH	bbrb	rrbr	4	2006	1	4	19	29-Oct-14	11	Blue	z	1	0.4063	H	Z	TRUH	FGKZ	brrr	rbbb	4	647	1	4	19	29-Oct-14	12	Blue	z	1	0.4486	V	Z	CYMV	LHWZ	brrr	rbbb	4	2006	1	4	19	29-Oct-14	13	Blue	b	0	0.5295	V	N	RCMV	BSLN	rrbr	bbrb	4	2006	1	4	19	29-Oct-14	14	Blue	s	0	1.2369	W	X	NVJW	MFTX	rbbr	brrb	4	647	1	4	19	29-Oct-14	15	Blue	x	1	1.4795	Z	X	RFIZ	KJPX	bbbr	rrrb	4	647	1	4	19	29-Oct-14	16	Blue	m	1	1.4744	M	X	BHJM	RCQX	rbbb	brrr	4	647	1	4	19	29-Oct-14	1	Red	b	1	0.7931	V	B	RFKV	OMSB	brbb	rbrr	4	647	1	4	19	29-Oct-14	2	Red	r	1	0.5949	R	K	DPYR	TQMK	brrr	rbbb	4	647	1	4	19	29-Oct-14	3	Red	e	0	0.7816	V	E	KNSV	QADE	bbbr	rrrb	4	647	1	4	19	29-Oct-14	4	Red	c	0	0.13	U	C	HKPU	TSIC	rrbr	bbrb	4	2006	1	4	19	29-Oct-14	5	Red	z	1	0.1657	P	Z	MWLP	VJUZ	bbrb	rrbr	4	2006	1	4	19	29-Oct-14	6	Red	m	0	1.51	G	X	BFEG	SHAX	rbrb	brbr	4	647	1	4	19	29-Oct-14	7	Red	w	0	1.4662	F	E	JVMF	IPKE	brrr	rbbb	4	2006	1	4	19	29-Oct-14	8	Red	v	1	0.7733	K	V	LMCK	XWIV	brbb	rbrr	4	647	1	4	19	29-Oct-14	9	Red	b	0	1.026	Z	N	KALZ	EBFN	bbrb	rrbr	4	2006	1	4	19	29-Oct-14	10	Red	c	1	2.572	C	T	FQSC	GBJT	bbbr	rrrb	4	647	1	4	19	29-Oct-14	11	Red	c	1	1.4246	Q	C	ZYFQ	DLRC	bbrb	rrbr	4	647	1	4	19	29-Oct-14	12	Red	r	0	0.3829	S	G	FVLS	PRDG	bbbb	rrrr	4	2006	1	4	19	29-Oct-14	13	Red	r	0	0.7782	N	W	BUKN	XFTW	rbrr	brbb	4	2006	1	4	19	29-Oct-14	14	Red	e	1	0.7346	Y	E	UVRY	KTLE	bbrb	rrbr	4	2006	1	4	19	29-Oct-14	15	Red	t	0	1.2355	J	T	KDUJ	GMAT	bbrr	rrbb	4	647	1	4	19	29-Oct-14	16	Red	r	1	0.5049	R	Q	XKBR	VEPQ	brbr	rbrb	4	2006	1	4	19	29-Oct-14	1	BLue	p	1	0.5929	N	P	QIN	USP	bbr	rrb	3	2006	1	4	19	29-Oct-14	2	BLue	t	1	0.9939	U	T	KRU	MOT	rbr	brb	3	2006	1	4	19	29-Oct-14	3	BLue	m	0	1.7084	A	Z	BRA	LOZ	rrb	bbr	3	647	1	4	19	29-Oct-14	4	BLue	f	1	0.2948	F	G	YVF	ZUG	rrb	bbr	3	2006	1	4	19	29-Oct-14	5	BLue	w	0	0.4833	M	J	ASM	ETJ	bbb	rrr	3	2006	1	4	19	29-Oct-14	6	BLue	a	1	0.3766	L	A	RUL	DCA	rrr	bbb	3	2006	1	4	19	29-Oct-14	7	BLue	x	0	0.1939	O	H	QVO	PBH	bbb	rrr	3	2006	1	4	19	29-Oct-14	8	BLue	b	0	0.0485	M	C	NRM	JXC	rrb	bbr	3	2006	1	4	19	29-Oct-14	9	BLue	d	1	0.9005	D	P	QWD	NAP	brb	rbr	3	647	1	4	19	29-Oct-14	10	BLue	t	0	1.8737	V	N	GRV	BXN	brr	rbb	3	647	1	4	19	29-Oct-14	11	BLue	h	1	0.342	H	W	KNH	TMW	rrb	bbr	3	2006	1	4	19	29-Oct-14	12	BLue	k	1	0.9275	K	I	ESK	BJI	rbb	brr	3	647	1	4	19	29-Oct-14	13	BLue	i	1	1.2993	I	A	ZFI	UJA	rrb	bbr	3	647	1	4	19	29-Oct-14	14	BLue	d	0	0.9152	M	T	NAM	EYT	rrb	bbr	3	647	1	4	19	29-Oct-14	15	BLue	b	0	1.0879	A	H	OUA	JLH	bbb	rrr	3	647	1	4	19	29-Oct-14	16	BLue	x	0	0.6392	O	F	KCO	UPF	rrb	bbr	3	647	1	4	19	29-Oct-14	1	Red	r	0	2.7382	Y	S	HEY	GQS	bbr	rrb	3	647	1	4	19	29-Oct-14	2	Red	y	1	0.4167	Y	N	PXY	LUN	rbr	brb	3	2006	1	4	19	29-Oct-14	3	Red	s	0	0.0011	G	D	ILG	KUD	brr	rbb	3	2006	1	4	19	29-Oct-14	4	Red	b	1	1.6385	T	B	ZKT	NQB	rrb	bbr	3	647	1	4	19	29-Oct-14	5	Red	x	0	0.0426	N	X	LEN	ARX	brr	rbb	3	2006	1	4	19	29-Oct-14	6	Red	z	1	0.7747	Z	H	AYZ	SPH	rrr	bbb	3	647	1	4	19	29-Oct-14	7	Red	j	1	0.4414	J	I	DXJ	AKI	bbr	rrb	3	2006	1	4	19	29-Oct-14	8	Red	b	0	0.8865	T	N	QXT	AHN	brb	rbr	3	647	1	4	19	29-Oct-14	9	Red	k	0	0.1582	H	B	AMH	WJB	rrb	bbr	3	2006	1	4	19	29-Oct-14	10	Red	i	1	0.3744	I	C	RVI	XFC	rbr	brb	3	2006	1	4	19	29-Oct-14	11	Red	v	1	0.9586	L	V	EJL	UPV	bbb	rrr	3	647	1	4	19	29-Oct-14	12	Red	f	1	0.3545	K	F	NOK	TVF	brb	rbr	3	2006	1	4	19	29-Oct-14	13	Red	e	1	0.5875	E	F	YTE	HWF	brr	rbb	3	647	1	4	19	29-Oct-14	14	Red	v	1	0.6438	V	B	YDV	SKB	rrr	bbb	3	647	1	4	19	29-Oct-14	15	Red	s	1	0.5464	G	S	HWG	BFS	rbb	brr	3	647	1	4	19	29-Oct-14	16	Red	f	1	0.3338	F	S	ZGF	NMS	rbr	brb	3	2006	1	4	19	29-Oct-14	1	Blue	c	1	0.8174	C	W	KC	SW	bb	rr	2	647	1	4	19	29-Oct-14	2	Blue	w	0	0.6237	A	H	NA	RH	br	rb	2	647	1	4	19	29-Oct-14	3	Blue	g	1	0.7424	X	G	BX	QG	rr	bb	2	647	1	4	19	29-Oct-14	4	Blue	o	0	3.5532	X	A	FX	PA	rb	br	2	2006	1	4	19	29-Oct-14	5	Blue	c	0	0.1615	Y	V	PY	BV	rr	bb	2	2006	1	4	19	29-Oct-14	6	Blue	w	0	0.2479	C	X	SC	WX	br	rb	2	647	1	4	19	29-Oct-14	7	Blue	g	1	0.5874	V	G	CV	SG	rr	bb	2	647	1	4	19	29-Oct-14	8	Blue	o	0	0.4344	C	H	OC	GH	rr	bb	2	647	1	4	19	29-Oct-14	9	Blue	b	0	5.5441	W	K	BW	GK	bb	rr	2	2006	1	4	19	29-Oct-14	10	Blue	d	0	0.7467	O	A	YO	PA	bb	rr	2	2006	1	4	19	29-Oct-14	11	Blue	s	0	0.5339	D	Y	QD	CY	rb	br	2	2006	1	4	19	29-Oct-14	12	Blue	w	0	0.9913	R	Y	TR	EY	bb	rr	2	647	1	4	19	29-Oct-14	13	Blue	d	0	0.265	B	D	UB	XD	rb	br	2	2006	1	4	19	29-Oct-14	14	Blue	x	0	0.0441	K	W	XK	FW	bb	rr	2	2006	1	4	19	29-Oct-14	15	Blue	b	0	1.807	N	T	ZN	UT	rb	br	2	647	1	4	19	29-Oct-14	16	Blue	j	1	0.6845	J	B	DJ	IB	rb	br	2	2006	1	4	19	29-Oct-14	1	Red	w	0	1.5407	N	T	FN	ZT	br	rb	2	646	1	4	19	29-Oct-14	2	Red	w	0	1.2594	E	P	WE	VP	br	rb	2	2006	1	4	19	29-Oct-14	3	Red	l	0	1.4202	V	N	UV	ZN	bb	rr	2	646	1	4	19	29-Oct-14	4	Red	l	1	0.4155	B	L	VB	AL	bb	rr	2	2006	1	4	19	29-Oct-14	5	Red	y	0	0.7576	E	F	IE	KF	bb	rr	2	2006	1	4	19	29-Oct-14	6	Red	d	0	0.4567	I	N	TI	UN	rb	br	2	2006	1	4	19	29-Oct-14	7	Red	a	0	0.4211	V	H	UV	LH	br	rb	2	2006	1	4	19	29-Oct-14	8	Red	o	0	0.1481	G	N	HG	UN	bb	rr	2	2006	1	4	19	29-Oct-14	9	Red	s	0	3.5696	H	J	PH	CJ	br	rb	2	646	1	4	19	29-Oct-14	10	Red	t	0	1.2255	G	E	ZG	UE	rr	bb	2	646	1	4	19	29-Oct-14	11	Red	j	1	0.4677	J	M	CJ	DM	br	rb	2	2006	1	4	19	29-Oct-14	12	Red	c	0	1.6077	O	D	AO	ED	rb	br	2	646	1	4	19	29-Oct-14	13	Red	l	1	0.7153	L	P	YL	MP	br	rb	2	646	1	4	19	29-Oct-14	14	Red	t	1	0.9419	B	T	QB	WT	bb	rr	2	646	1	4	19	29-Oct-14	15	Red	z	1	0.8642	P	Z	JP	QZ	bb	rr	2	646	1	4	19	29-Oct-14	16	Red	t	0	0.343	G	V	SG	HV	br	rb	2	2006	1	4	19	29-Oct-14	1	Blue	z	0	1.096	Q	Z	QLXD	ZAMR	b	r	1	647	1	4	09	29-Oct-14	2	Blue	a	1	0.9102	D	A	EYDX	NIAO	rrr	bbb	3	647	1	4	09	29-Oct-14	3	Blue	e	0	1.2201	R	K	PRYM	TKVQ	bb	rr	2	2006	1	4	09	29-Oct-14	4	Blue	w	0	1.423	A	W	BSQA	OFGW	brrb	rbbr	4	647	1	4	09	29-Oct-14	5	Blue	s	1	1.3606	G	S	GFYM	SUTB	r	b	1	2006	1	4	09	29-Oct-14	6	Blue	x	1	1.0214	E	X	QEOV	TXJG	rr	bb	2	647	1	4	09	29-Oct-14	7	Blue	k	1	0.9822	U	K	IEUC	QAKW	rbr	brb	3	647	1	4	09	29-Oct-14	8	Blue	g	1	0.9138	S	G	BPSI	WJGC	brr	rbb	3	2006	1	4	09	29-Oct-14	9	Blue	b	0	2.3048	N	C	GZMN	DRVC	bbbr	rrrb	4	647	1	4	09	29-Oct-14	10	Blue	k	1	1.1944	N	K	NMZQ	KVRO	r	b	1	647	1	4	09	29-Oct-14	11	Blue	q	0	0.7132	U	D	QTEU	WLVD	rrrr	bbbb	4	2006	1	4	09	29-Oct-14	12	Blue	q	0	2.0671	M	K	MATF	KGIV	b	r	1	2006	1	4	09	29-Oct-14	13	Blue	s	1	1.0554	Y	S	WFYI	NKSL	rrr	bbb	3	647	1	4	09	29-Oct-14	14	Blue	m	0	0.8352	Z	Q	WVRZ	BPOQ	rrrb	bbbr	4	2006	1	4	09	29-Oct-14	15	Blue	m	0	1.9696	O	V	NOXB	SVYH	bb	rr	2	647	1	4	09	29-Oct-14	16	Blue	q	1	1.179	H	Q	UYHL	MVQZ	rrr	bbb	3	2006	1	4	09	29-Oct-14	17	Blue	y	1	0.8008	Y	P	AWYI	FRPQ	rrb	bbr	3	2006	1	4	09	29-Oct-14	18	Blue	r	0	2.2267	K	F	PSIK	WHMF	brbb	rbrr	4	647	1	4	09	29-Oct-14	19	Blue	r	0	1.8001	D	E	DGYX	EVSK	r	b	1	2006	1	4	09	29-Oct-14	20	Blue	o	1	0.6601	P	O	PZRC	OBYE	r	b	1	2006	1	4	09	29-Oct-14	21	Blue	v	0	1.2112	W	H	SIGW	UDVH	bbbr	rrrb	4	647	1	4	09	29-Oct-14	22	Blue	i	1	1.2925	Z	I	EZUB	AIOV	rr	bb	2	647	1	4	09	29-Oct-14	23	Blue	c	0	1.2056	K	L	XGKE	RDLM	rbb	brr	3	2006	1	4	09	29-Oct-14	24	Blue	w	0	0.291	Z	P	BTLZ	OAKP	rrrb	bbbr	4	2006	1	4	09	29-Oct-14	25	Blue	w	0	1.2612	F	H	NFTX	AHKM	rb	br	2	2006	1	4	09	29-Oct-14	26	Blue	c	0	1.292	D	U	DTBE	UXZV	r	b	1	647	1	4	09	29-Oct-14	27	Blue	i	1	1.0434	L	I	HLEM	YIGP	rr	bb	2	2006	1	4	09	29-Oct-14	28	Blue	u	1	1.78	O	U	VKOY	NGUW	rrr	bbb	3	647	1	4	09	29-Oct-14	29	Blue	i	1	1.6326	I	U	IOLH	UAMD	b	r	1	647	1	4	09	29-Oct-14	30	Blue	p	0	1.4045	Y	X	DYEB	HXWL	rr	bb	2	647	1	4	09	29-Oct-14	31	Blue	s	0	0.6985	K	W	ENDK	GQVW	rrrb	bbbr	4	2006	1	4	09	29-Oct-14	32	Blue	t	0	1.4069	G	Q	DGRT	WQBY	bb	rr	2	2006	1	4	09	29-Oct-14	1	Red	i	1	0.6221	M	I	MDKE	IONP	b	r	1	2006	1	4	09	29-Oct-14	2	Red	t	0	2.6142	Y	W	OICY	XTKW	rrrb	bbbr	4	647	1	4	09	29-Oct-14	3	Red	h	1	0.7764	W	H	JWCV	IHLM	bb	rr	2	2006	1	4	09	29-Oct-14	4	Red	r	0	2.2819	B	K	QNBE	ORKZ	rrb	bbr	3	647	1	4	09	29-Oct-14	5	Red	a	1	0.8724	Q	A	VRJQ	SXNA	rbbb	brrr	4	647	1	4	09	29-Oct-14	6	Red	r	0	2.4063	Z	N	EZVJ	MNUA	rb	br	2	2006	1	4	09	29-Oct-14	7	Red	x	0	1.1185	K	Q	IFKB	REQS	rrr	bbb	3	647	1	4	09	29-Oct-14	8	Red	j	1	0.5228	E	J	EZOT	JISR	b	r	1	2006	1	4	09	29-Oct-14	9	Red	i	0	1.2435	H	F	HTZD	FWIY	r	b	1	647	1	4	09	29-Oct-14	10	Red	w	0	1.859	U	L	IUPY	ELXA	rb	br	2	647	1	4	09	29-Oct-14	11	Red	q	0	0.9861	I	K	LXJI	HMOK	bbbr	rrrb	4	2006	1	4	09	29-Oct-14	12	Red	l	1	1.1167	Z	L	FYZQ	WALP	bbb	rrr	3	647	1	4	09	29-Oct-14	13	Red	t	1	1.2407	E	T	EPHM	TKAX	b	r	1	647	1	4	09	29-Oct-14	14	Red	l	1	0.9684	S	L	STHN	LREV	b	r	1	647	1	4	09	29-Oct-14	15	Red	f	1	1.0368	I	F	UXIG	OLFY	rrb	bbr	3	2006	1	4	09	29-Oct-14	16	Red	w	0	0.936	L	G	IYSL	MKEG	rbrr	brbb	4	2006	1	4	09	29-Oct-14	17	Red	y	1	1.0902	V	Y	VEZT	YOBU	b	r	1	647	1	4	09	29-Oct-14	18	Red	w	0	2.419	Q	U	HEQW	PYUG	rrb	bbr	3	2006	1	4	09	29-Oct-14	19	Red	s	0	1.5549	X	D	TXFL	GDCJ	br	rb	2	2006	1	4	09	29-Oct-14	20	Red	d	0	1.5354	Q	H	QZFP	HERO	r	b	1	2006	1	4	09	29-Oct-14	21	Red	a	0	0.5771	K	Q	CMUK	PVGQ	bbbr	rrrb	4	2006	1	4	09	29-Oct-14	22	Red	q	1	1.0993	J	Q	MUJD	HEQX	rrb	bbr	3	2006	1	4	09	29-Oct-14	23	Red	e	0	1.9205	F	E	KFBD	REHZ	br	rb	2	647	1	4	09	29-Oct-14	24	Red	i	1	0.907	P	I	LPDC	HITR	bb	rr	2	2006	1	4	09	29-Oct-14	25	Red	b	1	1.0784	B	R	KBLW	SREV	rr	bb	2	647	1	4	09	29-Oct-14	26	Red	t	0	3.0624	W	P	KTHW	IUNP	rbbb	brrr	4	647	1	4	09	29-Oct-14	27	Red	t	0	1.0813	S	L	AMBS	NTWL	rbbr	brrb	4	647	1	4	09	29-Oct-14	28	Red	m	0	1.2471	P	O	EPUM	QORL	br	rb	2	647	1	4	09	29-Oct-14	29	Red	v	1	1.0042	O	V	FQLO	ZINV	rbrb	brbr	4	2006	1	4	09	29-Oct-14	30	Red	a	0	0.9276	M	Z	AKMY	FHZW	brr	rbb	3	2006	1	4	09	29-Oct-14	31	Red	i	1	0.5637	B	I	WVBH	ULIA	bbb	rrr	3	647	1	4	09	29-Oct-14	32	Red	r	0	1.8431	Z	A	ZCQT	AOVU	r	b	1	2006	1	4	09	29-Oct-14	1	Blue	l	0	0.8318	U	N	AFCU	BZPN	rrrb	bbbr	4	647	1	4	09	29-Oct-14	2	Blue	b	0	0.9508	K	M	IKSW	UMAT	br	rb	2	2006	1	4	09	29-Oct-14	3	Blue	l	1	0.6671	M	L	DMBO	RLHK	br	rb	2	2006	1	4	09	29-Oct-14	4	Blue	p	1	2.7584	P	B	PIKQ	BRJU	b	r	1	647	1	4	09	29-Oct-14	5	Blue	u	0	1.013	F	G	LUZF	OXWG	rrrr	bbbb	4	647	1	4	09	29-Oct-14	6	Blue	u	0	1.0678	L	Y	LSPB	YHVT	r	b	1	2006	1	4	09	29-Oct-14	7	Blue	a	1	0.73	I	A	IXQU	AFEM	r	b	1	2006	1	4	09	29-Oct-14	8	Blue	t	0	1.4847	J	V	XJPK	MVHR	rr	bb	2	647	1	4	09	29-Oct-14	9	Blue	b	0	0.7531	W	V	SDTW	GUBV	brbb	rbrr	4	2006	1	4	09	29-Oct-14	10	Blue	b	0	1.2934	O	D	XUSO	KQVD	rbrb	brbr	4	647	1	4	09	29-Oct-14	11	Blue	p	1	0.8608	D	P	FQDW	RIPC	rrr	bbb	3	647	1	4	09	29-Oct-14	12	Blue	o	1	0.2866	I	O	EUHI	YLXO	rbbr	brrb	4	2006	1	4	09	29-Oct-14	13	Blue	a	0	0.5411	Q	D	EHWQ	AYUD	rrbb	bbrr	4	2006	1	4	09	29-Oct-14	14	Blue	o	1	1.3601	E	O	XBEW	TYOH	rrr	bbb	3	2006	1	4	09	29-Oct-14	15	Blue	c	1	1.2353	F	C	FENW	CLXO	r	b	1	647	1	4	09	29-Oct-14	16	Blue	f	1	1.3547	W	F	WADM	FRZH	r	b	1	647	1	4	09	29-Oct-14	17	Blue	q	0	0.9916	P	A	XQPI	DMAG	rbr	brb	3	647	1	4	09	29-Oct-14	18	Blue	a	0	0.6516	U	S	YBUK	VJSH	rrr	bbb	3	2006	1	4	09	29-Oct-14	19	Blue	w	1	1.0477	D	W	DVFC	WAGT	r	b	1	647	1	4	09	29-Oct-14	20	Blue	o	0	0.6089	S	Z	DBSG	JUZF	bbr	rrb	3	2006	1	4	09	29-Oct-14	21	Blue	t	0	1.5685	W	C	EKWS	YXCV	brr	rbb	3	647	1	4	09	29-Oct-14	22	Blue	r	0	1.8139	S	X	VSON	HXDC	rr	bb	2	647	1	4	09	29-Oct-14	23	Blue	r	1	0.6551	T	R	ZFET	KAYR	rbbr	brrb	4	2006	1	4	09	29-Oct-14	24	Blue	t	0	1.2045	C	T	SCDA	VTFM	rb	br	2	2006	1	4	09	29-Oct-14	25	Blue	n	0	0.9286	R	E	GIRZ	OFEP	rrb	bbr	3	2006	1	4	09	29-Oct-14	26	Blue	w	0	1.5479	X	E	CXWV	JEYR	rr	bb	2	647	1	4	09	29-Oct-14	27	Blue	b	0	1.2678	W	J	VFHW	AZUJ	rrbr	bbrb	4	647	1	4	09	29-Oct-14	28	Blue	s	0	1.1963	O	H	LOYB	WHFR	bb	rr	2	647	1	4	09	29-Oct-14	29	Blue	y	0	1.1509	D	Y	PGDL	VHYO	brb	rbr	3	647	1	4	09	29-Oct-14	30	Blue	s	1	1.8904	W	S	WNBG	SVOA	r	b	1	2006	1	4	09	29-Oct-14	31	Blue	w	0	1.8769	E	J	CENU	RJQA	rb	br	2	2006	1	4	09	29-Oct-14	32	Blue	a	0	0.6466	V	I	VSOE	IKBZ	b	r	1	2006	1	4	09	29-Oct-14	1	Red	l	0	1.1022	W	M	DWIF	NMOJ	rr	bb	2	647	1	4	09	29-Oct-14	2	Red	k	0	1.0847	B	Y	PLHB	GASY	rbrr	brbb	4	647	1	4	09	29-Oct-14	3	Red	q	0	1.1545	J	W	XJYE	HWIU	br	rb	2	647	1	4	09	29-Oct-14	4	Red	a	0	0.3709	N	X	TCBN	GWAX	brbr	rbrb	4	2006	1	4	09	29-Oct-14	5	Red	s	0	1.0247	F	E	FORA	EVIN	r	b	1	647	1	4	09	29-Oct-14	6	Red	f	1	1.0242	T	F	WTCJ	BFIS	bb	rr	2	647	1	4	09	29-Oct-14	7	Red	w	0	0.9645	C	X	KASC	DJVX	bbrr	rrbb	4	2006	1	4	09	29-Oct-14	8	Red	u	1	1.0728	S	U	IMSP	TRUQ	bbb	rrr	3	2006	1	4	09	29-Oct-14	9	Red	l	0	0.9525	J	L	ZAJB	PELR	bbr	rrb	3	647	1	4	09	29-Oct-14	10	Red	b	0	0.9656	A	I	LMQA	SOCI	brrr	rbbb	4	647	1	4	09	29-Oct-14	11	Red	v	0	0.9507	S	V	SKHJ	VQNW	r	b	1	2006	1	4	09	29-Oct-14	12	Red	v	1	1.0008	C	V	CHAF	VMUJ	b	r	1	2006	1	4	09	29-Oct-14	13	Red	m	0	1.5248	V	U	IYGV	MPHU	bbbr	rrrb	4	647	1	4	09	29-Oct-14	14	Red	a	0	1.3304	V	M	VTSO	MBXC	r	b	1	2006	1	4	09	29-Oct-14	15	Red	x	0	1.4312	S	I	GSPX	BICF	rr	bb	2	647	1	4	09	29-Oct-14	16	Red	p	0	1.9358	P	M	PUQT	MJLG	b	r	1	647	1	4	09	29-Oct-14	17	Red	i	0	3.3456	J	O	YJEQ	LOGM	rr	bb	2	2006	1	4	09	29-Oct-14	18	Red	p	1	0.8101	P	V	ROPA	MGVH	rrr	bbb	3	2006	1	4	09	29-Oct-14	19	Red	s	0	1.827	E	M	BIEG	FQMO	brb	rbr	3	647	1	4	09	29-Oct-14	20	Red	g	0	1.092	U	H	BCZU	VRNH	brrb	rbbr	4	2006	1	4	09	29-Oct-14	21	Red	p	0	1.5799	E	D	PRYE	UNFD	brbr	rbrb	4	647	1	4	09	29-Oct-14	22	Red	d	0	2.6828	B	F	GIBS	RPFO	brr	rbb	3	2006	1	4	09	29-Oct-14	23	Red	v	1	0.7942	R	V	ARZF	MVHS	bb	rr	2	2006	1	4	09	29-Oct-14	24	Red	s	0	1.3551	O	Q	KOMI	NQJR	br	rb	2	2006	1	4	09	29-Oct-14	25	Red	r	0	2.3606	O	G	FWOA	QPGR	rrb	bbr	3	647	1	4	09	29-Oct-14	26	Red	d	0	1.9209	R	H	RCEI	HBYG	r	b	1	647	1	4	09	29-Oct-14	27	Red	v	1	0.9365	U	V	UTLA	VWIK	b	r	1	2006	1	4	09	29-Oct-14	28	Red	t	0	2.4608	N	W	KLNE	DQWF	rbb	brr	3	647	1	4	09	29-Oct-14	29	Red	s	0	0.6841	P	D	TPGK	MDEN	bb	rr	2	2006	1	4	09	29-Oct-14	30	Red	t	0	1.8544	Q	S	QKHC	SFEY	r	b	1	647	1	4	09	29-Oct-14	31	Red	x	0	0.9262	S	A	PUXS	GHDA	brrb	rbbr	4	2006	1	4	09	29-Oct-14	32	Red	s	0	0.3719	B	M	FGBQ	VKMZ	brb	rbr	3	2006	1	4	010	24-Oct-14	1	blue	p	0	2.3596	U	M	U	M	b	r	1	2006	1	5	110	24-Oct-14	2	blue	r	1	0.2404	B	R	B	R	r	b	1	2006	1	5	110	24-Oct-14	3	blue	f	1	0.0011	M	F	M	F	r	b	1	2006	1	5	110	24-Oct-14	4	blue	c	0	1.1101	Y	C	Y	C	b	r	1	647	1	5	110	24-Oct-14	5	blue	t	1	0.9703	T	R	T	R	b	r	1	647	1	5	110	24-Oct-14	6	blue	m	1	0.8266	M	C	M	C	b	r	1	647	1	5	110	24-Oct-14	7	blue	l	1	0.8724	L	E	L	E	b	r	1	647	1	5	110	24-Oct-14	8	blue	b	0	1.0201	N	V	N	V	b	r	1	647	1	5	110	24-Oct-14	9	blue	d	0	1.252	J	T	J	T	b	r	1	2006	1	5	110	24-Oct-14	10	blue	v	1	0.883	V	Q	V	Q	b	r	1	647	1	5	110	24-Oct-14	11	blue	p	1	0.952	O	P	O	P	r	b	1	2006	1	5	110	24-Oct-14	12	blue	r	0	1.5375	T	A	T	A	r	b	1	647	1	5	110	24-Oct-14	13	blue	f	1	0.2868	F	U	F	U	b	r	1	2006	1	5	110	24-Oct-14	14	blue	o	1	0.888	T	O	T	O	r	b	1	2006	1	5	110	24-Oct-14	15	blue	e	1	1.227	O	E	O	E	r	b	1	647	1	5	110	24-Oct-14	16	blue	h	1	0.779	H	G	H	G	b	r	1	2006	1	5	110	24-Oct-14	1	Red	z	1	3.2316	A	Z	A	Z	b	r	1	2006	1	5	110	24-Oct-14	2	Red	q	1	0.857	Q	U	Q	U	r	b	1	2006	1	5	110	24-Oct-14	3	Red	y	1	1.1987	M	Y	M	Y	b	r	1	646	1	5	110	24-Oct-14	4	Red	z	1	0.8231	L	Z	L	Z	b	r	1	2006	1	5	110	24-Oct-14	5	Red	c	1	1.0055	C	P	C	P	r	b	1	646	1	5	110	24-Oct-14	6	Red	h	1	0.9567	H	I	H	I	r	b	1	646	1	5	110	24-Oct-14	7	Red	n	1	0.9575	N	V	N	V	r	b	1	646	1	5	110	24-Oct-14	8	Red	n	1	0.9915	S	N	S	N	b	r	1	2006	1	5	110	24-Oct-14	9	Red	t	1	1.9517	T	G	T	G	r	b	1	646	1	5	110	24-Oct-14	10	Red	g	1	0.4297	G	S	G	S	r	b	1	2006	1	5	110	24-Oct-14	11	Red	c	1	0.506	B	C	B	C	b	r	1	2006	1	5	110	24-Oct-14	12	Red	j	1	0.4278	J	T	J	T	r	b	1	2006	1	5	110	24-Oct-14	13	Red	f	1	1.2152	F	G	F	G	r	b	1	646	1	5	110	24-Oct-14	14	Red	c	1	1.0953	C	M	C	M	r	b	1	646	1	5	110	24-Oct-14	15	Red	e	1	0.4523	E	Y	E	Y	r	b	1	2006	1	5	110	24-Oct-14	16	Red	c	0	1.3036	V	O	V	O	b	r	1	646	1	5	110	24-Oct-14	1	blue	w	0	1.3029	N	E	ICAN	HKTE	rbrb	brbr	4	647	1	5	110	24-Oct-14	2	blue	b	1	1.3998	B	V	ZUDB	SKPV	bbbb	rrrr	4	647	1	5	110	24-Oct-14	3	blue	l	1	0.9679	L	A	ESFL	UVYA	rrbb	bbrr	4	2006	1	5	110	24-Oct-14	4	blue	q	1	1.1182	Q	Z	BKCQ	FPXZ	rbrb	brbr	4	2006	1	5	110	24-Oct-14	5	blue	e	1	1.037	E	M	HLYE	DFGM	rrbb	bbrr	4	647	1	5	110	24-Oct-14	6	blue	x	1	1.0327	H	X	STIH	FJQX	rrbr	bbrb	4	2006	1	5	110	24-Oct-14	7	blue	a	0	1.0835	N	E	YQXN	STOE	brbr	rbrb	4	647	1	5	110	24-Oct-14	8	blue	q	0	1.212	W	F	EXMW	GKBF	brrb	rbbr	4	647	1	5	110	24-Oct-14	9	blue	v	0	1.6566	U	X	PDBU	WAHX	brbr	rbrb	4	647	1	5	110	24-Oct-14	10	blue	f	1	0.3585	H	F	BIYH	RCXF	bbrr	rrbb	4	2006	1	5	110	24-Oct-14	11	blue	r	1	1.7198	W	R	QBPW	SINR	brrr	rbbb	4	647	1	5	110	24-Oct-14	12	blue	k	1	1.2033	B	K	AMCB	FLEK	rbbr	brrb	4	2006	1	5	110	24-Oct-14	13	blue	v	0	1.0098	T	Y	EHWT	RZNY	rbrr	brbb	4	2006	1	5	110	24-Oct-14	14	blue	e	1	0.6542	E	V	HCGE	KUDV	brbb	rbrr	4	2006	1	5	110	24-Oct-14	15	blue	m	0	2.2938	T	W	JPUT	FNGW	bbrr	rrbb	4	647	1	5	110	24-Oct-14	16	blue	t	0	0.0011	J	Y	TVOJ	SIXY	rbrr	brbb	4	2006	1	5	110	24-Oct-14	1	Red	t	1	1.5378	S	T	JGNS	HAZT	rrrb	bbbr	4	647	1	5	110	24-Oct-14	2	Red	b	1	0.9057	E	B	GRAE	HXYB	bbrb	rrbr	4	647	1	5	110	24-Oct-14	3	Red	e	0	0.3953	C	N	TURC	FOPN	rbbb	brrr	4	2006	1	5	110	24-Oct-14	4	Red	z	1	0.7477	V	Z	UFSV	XNGZ	brrb	rbbr	4	647	1	5	110	24-Oct-14	5	Red	m	0	0.4816	D	F	WMKD	JXNF	rbrb	brbr	4	2006	1	5	110	24-Oct-14	6	Red	t	0	0.8632	K	E	BILK	ZPGE	bbbr	rrrb	4	647	1	5	110	24-Oct-14	7	Red	q	1	1.3997	C	Q	TSWC	ROBQ	rrrb	bbbr	4	647	1	5	110	24-Oct-14	8	Red	f	1	0.3823	H	F	PRBH	NQAF	rbrb	brbr	4	2006	1	5	110	24-Oct-14	9	Red	u	1	0.3773	G	U	VHSG	WMNU	rrbb	bbrr	4	2006	1	5	110	24-Oct-14	10	Red	e	1	0.3887	Z	E	LGAZ	DCKE	brbb	rbrr	4	2006	1	5	110	24-Oct-14	11	Red	a	0	1.1253	O	K	GIEO	FTHK	bbrr	rrbb	4	647	1	5	110	24-Oct-14	12	Red	w	1	0.3581	G	W	LZEG	SBDW	bbrb	rrbr	4	2006	1	5	110	24-Oct-14	13	Red	b	0	1.1695	G	Q	EMPG	VWXQ	rrbr	bbrb	4	2006	1	5	110	24-Oct-14	14	Red	d	1	1.3666	G	D	ICJG	VNKD	rbbb	brrr	4	647	1	5	110	24-Oct-14	15	Red	g	1	0.4152	G	J	WHCG	AXNJ	bbrr	rrbb	4	2006	1	5	110	24-Oct-14	16	Red	b	0	1.2475	A	N	POHA	GLRN	brrr	rbbb	4	647	1	5	110	24-Oct-14	1	blue	d	1	0.9245	D	P	QWD	NAP	brb	rbr	3	647	1	5	110	24-Oct-14	2	blue	o	0	1.0004	V	N	GRV	BXN	brr	rbb	3	647	1	5	110	24-Oct-14	3	blue	k	0	1.4181	H	W	KNH	TMW	rrb	bbr	3	647	1	5	110	24-Oct-14	4	blue	k	1	1.1975	K	I	ESK	BJI	rbb	brr	3	647	1	5	110	24-Oct-14	5	blue	n	0	1.7205	I	A	ZFI	UJA	rrb	bbr	3	647	1	5	110	24-Oct-14	6	blue	d	0	1.2104	M	T	NAM	EYT	rrb	bbr	3	2006	1	5	110	24-Oct-14	7	blue	b	0	1.0066	A	H	OUA	JLH	bbb	rrr	3	2006	1	5	110	24-Oct-14	8	blue	k	0	0.69	O	F	KCO	UPF	rrb	bbr	3	2006	1	5	110	24-Oct-14	9	blue	r	0	1.0781	U	W	FXU	CGW	rrr	bbb	3	647	1	5	110	24-Oct-14	10	blue	o	0	0.7749	J	D	BGJ	OTD	bbb	rrr	3	2006	1	5	110	24-Oct-14	11	blue	b	0	1.0661	W	T	NYW	MHT	brb	rbr	3	2006	1	5	110	24-Oct-14	12	blue	q	0	0.9632	J	S	LBJ	HRS	rbb	brr	3	2006	1	5	110	24-Oct-14	13	blue	b	0	1.1742	Q	L	UMQ	CDL	bbb	rrr	3	647	1	5	110	24-Oct-14	14	blue	a	1	1.562	K	A	QDK	PXA	rrr	bbb	3	647	1	5	110	24-Oct-14	15	blue	w	0	0.4737	T	Z	ODT	PNZ	rbb	brr	3	2006	1	5	110	24-Oct-14	16	blue	m	0	0.2878	N	D	FQN	XOD	rbb	brr	3	2006	1	5	110	24-Oct-14	1	Red	b	1	0.4987	H	B	AMH	WJB	rrb	bbr	3	2006	1	5	110	24-Oct-14	2	Red	b	0	1.0686	I	C	RVI	XFC	rbr	brb	3	647	1	5	110	24-Oct-14	3	Red	s	0	1.1651	L	V	EJL	UPV	bbb	rrr	3	647	1	5	110	24-Oct-14	4	Red	f	1	1.1694	K	F	NOK	TVF	brb	rbr	3	647	1	5	110	24-Oct-14	5	Red	g	0	0.5099	E	F	YTE	HWF	brr	rbb	3	2006	1	5	110	24-Oct-14	6	Red	v	1	0.3224	V	B	YDV	SKB	rrr	bbb	3	2006	1	5	110	24-Oct-14	7	Red	l	0	0.3733	G	S	HWG	BFS	rbb	brr	3	2006	1	5	110	24-Oct-14	8	Red	f	1	0.8853	F	S	ZGF	NMS	rbr	brb	3	647	1	5	110	24-Oct-14	9	Red	j	1	0.3726	J	C	DSJ	NKC	rrr	bbb	3	2006	1	5	110	24-Oct-14	10	Red	w	1	1.2145	U	W	DSU	HRW	brb	rbr	3	2006	1	5	110	24-Oct-14	11	Red	v	0	1.0973	T	Y	APT	NBY	rrr	bbb	3	647	1	5	110	24-Oct-14	12	Red	o	1	0.8955	O	I	CEO	KRI	rrr	bbb	3	647	1	5	110	24-Oct-14	13	Red	n	1	0.4309	W	N	VIW	SMN	rrb	bbr	3	2006	1	5	110	24-Oct-14	14	Red	w	0	1.4935	M	G	DHM	XEG	bbr	rrb	3	2006	1	5	110	24-Oct-14	15	Red	a	0	1.1667	W	E	RBW	MOE	rbr	brb	3	647	1	5	110	24-Oct-14	16	Red	e	1	0.8506	E	X	TOE	FCX	bbr	rrb	3	647	1	5	110	24-Oct-14	1	blue	t	0	0.8948	Y	T	NY	JT	rb	br	2	2006	1	5	110	24-Oct-14	2	blue	l	1	0.938	F	L	PF	HL	br	rb	2	647	1	5	110	24-Oct-14	3	blue	k	1	1.022	K	B	UK	GB	rb	br	2	647	1	5	110	24-Oct-14	4	blue	z	1	1.4295	F	Z	GF	EZ	rr	bb	2	647	1	5	110	24-Oct-14	5	blue	o	1	0.9283	U	O	GU	KO	br	rb	2	2006	1	5	110	24-Oct-14	6	blue	o	0	2.2754	P	F	ZP	VF	rb	br	2	647	1	5	110	24-Oct-14	7	blue	l	0	1.0725	M	Q	FM	VQ	br	rb	2	647	1	5	110	24-Oct-14	8	blue	f	0	0.3832	E	H	KE	LH	rb	br	2	2006	1	5	110	24-Oct-14	9	blue	w	0	1.4691	M	J	YM	IJ	bb	rr	2	647	1	5	110	24-Oct-14	10	blue	e	0	0.4309	V	A	HV	JA	rr	bb	2	2006	1	5	110	24-Oct-14	11	blue	b	1	1.6271	B	M	LB	VM	bb	rr	2	647	1	5	110	24-Oct-14	12	blue	i	0	0.9197	R	I	YR	MI	rb	br	2	2006	1	5	110	24-Oct-14	13	blue	p	1	0.4923	E	P	XE	FP	rr	bb	2	2006	1	5	110	24-Oct-14	14	blue	b	0	2.6387	O	V	TO	ZV	bb	rr	2	647	1	5	110	24-Oct-14	15	blue	b	0	0.3431	U	V	FU	TV	rb	br	2	2006	1	5	110	24-Oct-14	16	blue	m	0	0.3838	N	L	AN	GL	br	rb	2	2006	1	5	110	24-Oct-14	1	Red	t	1	0.3224	T	G	UT	SG	rr	bb	2	2006	1	5	110	24-Oct-14	2	Red	s	1	1.1553	H	S	NH	KS	bb	rr	2	647	1	5	110	24-Oct-14	3	Red	i	1	0.958	Y	I	MY	WI	bb	rr	2	647	1	5	110	24-Oct-14	4	Red	w	0	1.0168	I	V	CI	PV	rb	br	2	647	1	5	110	24-Oct-14	5	Red	w	0	0.9527	Q	R	ZQ	SR	rb	br	2	647	1	5	110	24-Oct-14	6	Red	p	1	0.3081	J	P	AJ	SP	rb	br	2	2006	1	5	110	24-Oct-14	7	Red	l	1	0.5022	L	T	ML	ST	rr	bb	2	2006	1	5	110	24-Oct-14	8	Red	q	0	0.889	J	I	UJ	QI	bb	rr	2	2006	1	5	110	24-Oct-14	9	Red	n	0	1.3496	I	C	DI	LC	rr	bb	2	647	1	5	110	24-Oct-14	10	Red	a	1	0.3147	A	N	XA	FN	rr	bb	2	2006	1	5	110	24-Oct-14	11	Red	c	1	0.3969	D	C	WD	AC	bb	rr	2	2006	1	5	110	24-Oct-14	12	Red	v	0	1.3946	O	A	DO	NA	rb	br	2	647	1	5	110	24-Oct-14	13	Red	i	1	0.9174	W	I	UW	ZI	rb	br	2	647	1	5	110	24-Oct-14	14	Red	d	0	1.1687	T	P	VT	QP	rr	bb	2	647	1	5	110	24-Oct-14	15	Red	k	1	0.4043	Z	K	WZ	BK	rb	br	2	2006	1	5	110	24-Oct-14	16	Red	d	0	0.5148	S	T	ES	UT	rr	bb	2	2006	1	5	110	24-Oct-14	1	blue	k	1	0.4081	N	K	NMZQ	KVRO	r	b	1	2006	1	5	010	24-Oct-14	2	blue	l	1	1.1414	T	L	QTEU	WLVD	rr	bb	2	2006	1	5	010	24-Oct-14	3	blue	h	1	0.9053	G	H	GART	HSCB	r	b	1	2006	1	5	010	24-Oct-14	4	blue	y	0	1.4698	A	G	MATF	KGIV	bb	rr	2	647	1	5	010	24-Oct-14	5	blue	v	1	1.2688	K	V	KZTA	VMPE	r	b	1	2006	1	5	010	24-Oct-14	6	blue	b	0	1.2058	D	U	SDWH	AUOV	br	rb	2	2006	1	5	010	24-Oct-14	7	blue	e	0	1.2023	H	Y	OLHJ	XMYZ	rbb	brr	3	2006	1	5	010	24-Oct-14	8	blue	g	0	1.0208	W	N	CGWM	PZNY	bbr	rrb	3	647	1	5	010	24-Oct-14	9	blue	a	0	1.1285	R	B	FNCR	SIAB	rrrr	bbbb	4	2006	1	5	010	24-Oct-14	10	blue	w	0	1.8763	V	T	VZHR	TKJN	r	b	1	647	1	5	010	24-Oct-14	11	blue	z	1	1.9176	Z	A	LZTR	BAQS	rb	br	2	647	1	5	010	24-Oct-14	12	blue	o	0	1.1998	N	U	OJNI	DQUF	rrb	bbr	3	647	1	5	010	24-Oct-14	13	blue	s	1	1.4742	S	E	CSPD	XEHR	bb	rr	2	2006	1	5	010	24-Oct-14	14	blue	a	0	2.8496	G	P	GOTX	PMBS	b	r	1	647	1	5	010	24-Oct-14	15	blue	q	0	0.4283	C	Q	TSRC	LHGQ	brrb	rbbr	4	647	1	5	010	24-Oct-14	16	blue	l	0	0.4368	D	V	LXPD	OARV	bbbr	rrrb	4	2006	1	5	010	24-Oct-14	17	blue	y	1	0.8274	J	Y	FOUJ	LKTY	rbrr	brbb	4	647	1	5	010	24-Oct-14	18	blue	b	0	0.8933	E	C	LMHE	BGXC	brbr	rbrb	4	647	1	5	010	24-Oct-14	19	blue	w	0	1.6094	P	L	CPIS	ALZY	br	rb	2	647	1	5	010	24-Oct-14	20	blue	c	0	1.0552	B	K	IABY	NQKG	rrb	bbr	3	2006	1	5	010	24-Oct-14	21	blue	r	0	0.5446	B	L	DYEB	HXWL	rrrr	bbbb	4	647	1	5	010	24-Oct-14	22	blue	m	0	1.1064	N	J	UGNA	OYJC	rbb	brr	3	647	1	5	010	24-Oct-14	23	blue	w	0	1.2301	R	B	RFNS	BGTU	b	r	1	2006	1	5	010	24-Oct-14	24	blue	r	0	0.4116	V	D	APSV	XQBD	rbbr	brrb	4	2006	1	5	010	24-Oct-14	25	blue	l	1	1.3538	L	R	ZLGP	WRBX	rb	br	2	647	1	5	010	24-Oct-14	26	blue	q	0	2.7805	A	N	APIO	NRSQ	b	r	1	647	1	5	010	24-Oct-14	27	blue	w	0	1.1759	P	T	OPDV	YTHN	br	rb	2	2006	1	5	010	24-Oct-14	28	blue	t	1	1.1431	Q	T	YVCQ	UAPT	brbr	rbrb	4	2006	1	5	010	24-Oct-14	29	blue	w	0	1.1175	X	Q	FIXV	HOQT	brb	rbr	3	2006	1	5	010	24-Oct-14	30	blue	w	0	2.009	C	F	CKHJ	FRZA	r	b	1	647	1	5	010	24-Oct-14	31	blue	q	0	0.6013	P	Y	WNPL	XKYF	rrr	bbb	3	2006	1	5	010	24-Oct-14	32	blue	b	0	1.3692	I	Q	FTIS	LWQV	brb	rbr	3	647	1	5	010	24-Oct-14	1	Red	w	0	1.3282	F	I	PFYB	GIDA	bb	rr	2	647	1	5	010	24-Oct-14	2	Red	e	1	1.1639	Y	E	YNLV	EQJH	b	r	1	647	1	5	010	24-Oct-14	3	Red	b	1	1.5364	I	B	JIRA	VBHY	rb	br	2	647	1	5	010	24-Oct-14	4	Red	w	0	1.0773	M	P	MJRS	PDGZ	b	r	1	2006	1	5	010	24-Oct-14	5	Red	t	1	1.0512	E	T	EPHM	TKAX	b	r	1	2006	1	5	010	24-Oct-14	6	Red	n	0	1.0203	H	E	STHN	LREV	bbr	rrb	3	2006	1	5	010	24-Oct-14	7	Red	x	0	0.6072	C	M	WJCE	TVMP	brr	rbb	3	2006	1	5	010	24-Oct-14	8	Red	q	0	1.3346	J	T	IBJH	COTW	rrb	bbr	3	647	1	5	010	24-Oct-14	9	Red	n	0	1.6425	Y	M	EYDJ	OMGT	br	rb	2	647	1	5	010	24-Oct-14	10	Red	y	0	1.4144	R	E	GRSL	OEZA	br	rb	2	2006	1	5	010	24-Oct-14	11	Red	b	0	1.3433	J	U	JPMI	UHOB	r	b	1	647	1	5	010	24-Oct-14	12	Red	q	0	2.1922	P	O	QZFP	HERO	rrbb	bbrr	4	2006	1	5	010	24-Oct-14	13	Red	b	1	1.4742	B	M	ZPXB	JSEM	rrrr	bbbb	4	647	1	5	010	24-Oct-14	14	Red	g	1	1.2358	G	O	XLGB	PEOU	bbr	rrb	3	647	1	5	010	24-Oct-14	15	Red	a	0	1.8224	C	R	LPDC	HITR	bbbr	rrrb	4	647	1	5	010	24-Oct-14	16	Red	r	1	1.4294	Q	R	SWZQ	JMER	brbb	rbrr	4	647	1	5	010	24-Oct-14	17	Red	s	0	1.2956	T	Q	JETG	PIQH	rrb	bbr	3	647	1	5	010	24-Oct-14	18	Red	r	1	0.9772	F	R	LNFT	HCRK	rbb	brr	3	2006	1	5	010	24-Oct-14	19	Red	m	0	1.7159	P	O	KMPD	CEOJ	brb	rbr	3	647	1	5	010	24-Oct-14	20	Red	q	0	2.1801	M	O	AMIK	NOST	br	rb	2	2006	1	5	010	24-Oct-14	21	Red	q	0	0.8959	F	J	YGPF	EDSJ	rrbb	bbrr	4	2006	1	5	010	24-Oct-14	22	Red	q	0	1.5319	O	U	LONT	IUKJ	br	rb	2	647	1	5	010	24-Oct-14	23	Red	t	0	2.1934	C	H	CYEN	HSVA	r	b	1	2006	1	5	010	24-Oct-14	24	Red	n	0	1.8401	G	V	GLIH	VTZM	r	b	1	2006	1	5	010	24-Oct-14	25	Red	w	0	1.0878	Q	G	PFLQ	CESG	rbrr	brbb	4	2006	1	5	010	24-Oct-14	26	Red	t	0	2.9568	O	W	OGYU	WCDI	r	b	1	647	1	5	010	24-Oct-14	27	Red	j	1	1.2692	J	Y	TKPJ	NUQY	bbrr	rrbb	4	2006	1	5	010	24-Oct-14	28	Red	g	0	1.1836	Q	C	VAFQ	GJDC	bbbr	rrrb	4	647	1	5	010	24-Oct-14	29	Red	e	1	1.0683	E	V	JNEZ	KQVB	rrr	bbb	3	2006	1	5	010	24-Oct-14	30	Red	n	1	1.5158	P	N	QPDY	WNBM	bb	rr	2	2006	1	5	010	24-Oct-14	31	Red	b	0	1.7458	Q	I	QXHY	ICMZ	r	b	1	647	1	5	010	24-Oct-14	32	Red	b	0	1.7289	W	L	QWHE	CLIS	rb	br	2	2006	1	5	010	24-Oct-14	1	blue	r	0	1.9837	G	Q	GFKM	QBAV	r	b	1	2006	1	5	010	24-Oct-14	2	blue	q	0	1.5806	S	R	BSDI	XRQC	br	rb	2	647	1	5	010	24-Oct-14	3	blue	a	0	1.0464	G	F	TMOG	XIYF	rrrb	bbbr	4	2006	1	5	010	24-Oct-14	4	blue	f	0	2.4606	O	I	OZCS	IYMH	r	b	1	2006	1	5	010	24-Oct-14	5	blue	y	1	2.3069	H	Y	EHWQ	AYUD	rr	bb	2	2006	1	5	010	24-Oct-14	6	blue	w	0	1.3208	C	O	BZCI	TPOS	bbr	rrb	3	2006	1	5	010	24-Oct-14	7	blue	e	1	1.6606	T	E	TAHJ	ESQL	r	b	1	647	1	5	010	24-Oct-14	8	blue	c	1	1.7816	F	C	FENW	CLXO	r	b	1	647	1	5	010	24-Oct-14	9	blue	f	1	3.7624	W	F	WADM	FRZH	r	b	1	2006	1	5	010	24-Oct-14	10	blue	b	0	1.8899	X	D	XQPI	DMAG	r	b	1	647	1	5	010	24-Oct-14	11	blue	o	0	0.9362	Z	F	IOTZ	GECF	rbrr	brbb	4	2006	1	5	010	24-Oct-14	12	blue	b	0	1.7243	U	P	GEUW	MLPT	rrb	bbr	3	647	1	5	010	24-Oct-14	13	blue	a	0	1.2141	Q	D	LKQN	VYDH	brb	rbr	3	2006	1	5	010	24-Oct-14	14	blue	m	0	1.6159	M	P	TMHL	RPJY	rr	bb	2	647	1	5	010	24-Oct-14	15	blue	r	0	1.3511	N	C	VSON	HXDC	rrrr	bbbb	4	2006	1	5	010	24-Oct-14	16	blue	b	0	1.2143	O	S	EKBO	CHGS	brrr	rbbb	4	647	1	5	010	24-Oct-14	17	blue	q	0	1.8246	O	W	VOCZ	MWTR	rr	bb	2	2006	1	5	010	24-Oct-14	18	blue	w	0	2.2851	I	G	XINM	DGYO	bb	rr	2	2006	1	5	010	24-Oct-14	19	blue	m	0	1.2758	F	X	YILF	ASDX	rrrr	bbbb	4	647	1	5	010	24-Oct-14	20	blue	c	1	1.5139	X	C	XHVQ	CGJB	r	b	1	647	1	5	010	24-Oct-14	21	blue	f	1	1.122	Y	F	LOYB	WHFR	bbr	rrb	3	647	1	5	010	24-Oct-14	22	blue	b	0	1.1133	Z	S	UMZW	EBSG	rbb	brr	3	2006	1	5	010	24-Oct-14	23	blue	w	0	1.3421	Y	C	QYMN	VCGD	rr	bb	2	2006	1	5	010	24-Oct-14	24	blue	o	0	1.1594	L	H	BRVL	DQPH	bbbb	rrrr	4	2006	1	5	010	24-Oct-14	25	blue	w	0	1.2344	C	L	KCQZ	MLGH	bb	rr	2	647	1	5	010	24-Oct-14	26	blue	d	0	1.2288	J	S	TYJN	EPSU	rrr	bbb	3	647	1	5	010	24-Oct-14	27	blue	w	0	0.9361	D	I	CPKD	NOEI	rbbr	brrb	4	647	1	5	010	24-Oct-14	28	blue	w	0	1.3386	B	E	BMPO	ETKG	b	r	1	2006	1	5	010	24-Oct-14	29	blue	l	0	1.3197	S	L	NSUG	PLXT	rb	br	2	647	1	5	010	24-Oct-14	30	blue	w	0	1.055	I	O	CZAI	PHLO	rrbb	bbrr	4	647	1	5	010	24-Oct-14	31	blue	y	0	1.1995	V	Y	BIVK	WLYA	rrb	bbr	3	647	1	5	010	24-Oct-14	32	blue	m	0	0.988	L	V	SILY	KOVA	bbr	rrb	3	2006	1	5	010	24-Oct-14	1	Red	g	1	1.3452	U	G	HYUJ	BEGV	rrb	bbr	3	646	1	5	010	24-Oct-14	2	Red	t	0	1.2769	Q	K	GQAE	SKCR	rr	bb	2	646	1	5	010	24-Oct-14	3	Red	s	1	1.3722	S	V	SKHJ	VQNW	r	b	1	2005	1	5	010	24-Oct-14	4	Red	u	1	1.609	A	U	CHAF	VMUJ	brb	rbr	3	646	1	5	010	24-Oct-14	5	Red	b	0	1.388	M	C	UMHQ	ZCJB	br	rb	2	646	1	5	010	24-Oct-14	6	Red	w	0	1.3027	V	M	VTSO	MBXC	r	b	1	2005	1	5	010	24-Oct-14	7	Red	m	0	1.1736	S	I	GSPX	BICF	rr	bb	2	646	1	5	010	24-Oct-14	8	Red	r	0	1.2394	P	M	PUQT	MJLG	b	r	1	2005	1	5	010	24-Oct-14	9	Red	r	0	1.7117	J	O	YJEQ	LOGM	rr	bb	2	2005	1	5	010	24-Oct-14	10	Red	n	0	2.1113	R	M	ROPA	MGVH	r	b	1	2005	1	5	010	24-Oct-14	11	Red	l	1	1.3244	D	L	MODA	WTLU	rbb	brr	3	2005	1	5	010	24-Oct-14	12	Red	v	0	1.1879	A	W	XPAG	OVWB	bbb	rrr	3	2005	1	5	010	24-Oct-14	13	Red	b	0	1.5035	U	K	DQUG	WOKA	rbb	brr	3	646	1	5	010	24-Oct-14	14	Red	m	0	1.1034	Z	D	LVZO	TKDU	rbr	brb	3	646	1	5	010	24-Oct-14	15	Red	s	1	1.1031	S	O	GIBS	RPFO	brrr	rbbb	4	646	1	5	010	24-Oct-14	16	Red	w	0	1.3165	F	N	VFUH	KNGS	br	rb	2	2005	1	5	010	24-Oct-14	17	Red	w	0	1.0525	D	R	XBED	VIUR	rrrr	bbbb	4	646	1	5	010	24-Oct-14	18	Red	s	1	1.1424	I	S	LWBI	FEKS	brrb	rbbr	4	646	1	5	010	24-Oct-14	19	Red	z	0	1.3624	L	Q	KLNE	DQWF	rb	br	2	2005	1	5	010	24-Oct-14	20	Red	l	1	3.1237	I	L	QBKI	HYPL	rbbb	brrr	4	2005	1	5	010	24-Oct-14	21	Red	s	0	1.7849	D	I	DAWO	IPZQ	r	b	1	646	1	5	010	24-Oct-14	22	Red	r	0	1.6769	J	Y	JMRH	YTBI	r	b	1	646	1	5	010	24-Oct-14	23	Red	p	0	3.8667	Q	Z	GMOQ	ISYZ	bbbr	rrrb	4	2005	1	5	010	24-Oct-14	24	Red	r	0	1.5918	W	I	BWQC	LIES	bb	rr	2	2005	1	5	010	24-Oct-14	25	Red	b	0	1.2544	H	S	VILH	NWJS	rrbr	bbrb	4	646	1	5	010	24-Oct-14	26	Red	n	0	1.9092	S	F	SPCG	FIJM	r	b	1	646	1	5	010	24-Oct-14	27	Red	n	0	2.0623	E	S	BEXA	ZSPR	rr	bb	2	646	1	5	010	24-Oct-14	28	Red	c	0	1.3989	A	B	WSJA	CGIB	rrbb	bbrr	4	2005	1	5	010	24-Oct-14	29	Red	n	0	0.7484	B	T	AGBL	WJTD	rrr	bbb	3	2005	1	5	010	24-Oct-14	30	Red	m	0	1.2249	T	Z	VKTL	ICZH	rrb	bbr	3	2005	1	5	010	24-Oct-14	31	Red	b	0	1.2142	H	W	MGUH	TBVW	rrrb	bbbr	4	2005	1	5	010	24-Oct-14	32	Red	m	0	1.6786	R	Q	RAYO	QEWS	r	b	1	646	1	5	012	31-Oct-14	1	Blue	b	0	3.3513	V	J	UMV	PQJ	bbr	rrb	3	2006	1	5	112	31-Oct-14	2	Blue	a	0	6.1356	U	J	MFU	AEJ	rbb	brr	3	2006	1	5	112	31-Oct-14	3	Blue	q	1	0.0011	Q	M	TRQ	UHM	bbb	rrr	3	2006	1	5	112	31-Oct-14	4	Blue	h	0	1.6378	O	Y	LEO	PWY	brb	rbr	3	647	1	5	112	31-Oct-14	5	Blue	t	0	0.7851	S	R	JTS	CYR	brb	rbr	3	647	1	5	112	31-Oct-14	6	Blue	p	0	1.9867	G	X	OPG	EWX	rrr	bbb	3	647	1	5	112	31-Oct-14	7	Blue	n	0	0.7297	N	J	FUN	DYJ	bbr	rrb	3	647	1	5	112	31-Oct-14	8	Blue	m	1	0.437	M	L	OEM	HUL	rbb	brr	3	647	1	5	112	31-Oct-14	9	Blue	o	0	2.3084	K	L	QOK	NIL	brr	rbb	3	2006	1	5	112	31-Oct-14	10	Blue	y	1	1.7612	Y	K	JZY	EOK	bbb	rrr	3	647	1	5	112	31-Oct-14	11	Blue	s	1	0.386	S	B	MHS	VXB	rbb	brr	3	2006	1	5	112	31-Oct-14	12	Blue	b	0	0.6094	X	Q	NTX	OBQ	rbr	brb	3	647	1	5	112	31-Oct-14	13	Blue	l	0	0.2579	N	T	FEN	PWT	bbr	rrb	3	2006	1	5	112	31-Oct-14	14	Blue	f	1	0.6557	S	F	IRS	LAF	bbr	rrb	3	2006	1	5	112	31-Oct-14	15	Blue	c	1	0.8694	C	U	VWC	ETU	bbb	rrr	3	647	1	5	112	31-Oct-14	16	Blue	y	1	0.4533	Y	M	UIY	VDM	rrb	bbr	3	2006	1	5	112	31-Oct-14	1	Red	q	0	0.6691	P	X	YSP	QNX	rbb	brr	3	646	1	5	112	31-Oct-14	2	Red	r	1	2.3715	I	R	SKI	OYR	brb	rbr	3	2003	1	5	112	31-Oct-14	3	Red	x	1	0.5686	H	X	URH	JCX	rbb	brr	3	2003	1	5	112	31-Oct-14	4	Red	l	1	1.0831	M	L	BIM	WAL	bbb	rrr	3	2003	1	5	112	31-Oct-14	5	Red	k	0	0.3318	G	W	VAG	FNW	bbr	rrb	3	2003	1	5	112	31-Oct-14	6	Red	q	0	0.001	U	W	LXU	TVW	bbr	rrb	3	2003	1	5	112	31-Oct-14	7	Red	v	0	1.0592	C	X	OYC	LBX	bbb	rrr	3	646	1	5	112	31-Oct-14	8	Red	w	0	0.8504	S	R	DMS	HLR	brb	rbr	3	646	1	5	112	31-Oct-14	9	Red	v	1	0.8592	V	E	GXV	ACE	rbr	brb	3	2003	1	5	112	31-Oct-14	10	Red	z	0	1.3059	V	M	XNV	CZM	rbr	brb	3	646	1	5	112	31-Oct-14	11	Red	a	0	1.2977	R	C	TER	BHC	brr	rbb	3	646	1	5	112	31-Oct-14	12	Red	g	0	0.6827	Z	O	CHZ	GNO	rrb	bbr	3	2003	1	5	112	31-Oct-14	13	Red	j	0	6.2654	M	F	NDM	TJF	bbr	rrb	3	2003	1	5	112	31-Oct-14	14	Red	o	0	0.787	Y	M	TFY	NOM	brb	rbr	3	646	1	5	112	31-Oct-14	15	Red	t	0	1.3564	C	A	QSC	RBA	brr	rbb	3	646	1	5	112	31-Oct-14	16	Red	w	0	0.9856	B	M	UXB	ISM	rrb	bbr	3	646	1	5	112	31-Oct-14	1	Blue	m	0	1.2748	F	I	UWAF	XKJI	bbrb	rrbr	4	647	1	5	112	31-Oct-14	2	Blue	l	1	0.4222	T	L	YCMT	BFSL	bbbr	rrrb	4	2006	1	5	112	31-Oct-14	3	Blue	w	0	1.0799	Y	V	INCY	UPTV	rrbr	bbrb	4	2006	1	5	112	31-Oct-14	4	Blue	g	1	0.41	F	G	LRCF	AIOG	rbrr	brbb	4	2006	1	5	112	31-Oct-14	5	Blue	n	1	0.9781	N	E	BCAN	TMLE	rbbb	brrr	4	647	1	5	112	31-Oct-14	6	Blue	r	1	0.6807	R	C	ABPR	DWOC	bbrb	rrbr	4	2006	1	5	112	31-Oct-14	7	Blue	i	1	1.1446	I	D	WXGI	VJRD	rbbb	brrr	4	2006	1	5	112	31-Oct-14	8	Blue	g	1	0.8787	U	G	YPZU	SVOG	brrr	rbbb	4	647	1	5	112	31-Oct-14	9	Blue	e	1	1.0007	I	E	LBVI	FHPE	rbrr	brbb	4	2006	1	5	112	31-Oct-14	10	Blue	w	0	2.0432	Q	N	ZYKQ	TADN	bbrr	rrbb	4	647	1	5	112	31-Oct-14	11	Blue	u	1	0.8287	H	U	XKLH	OAJU	brrr	rbbb	4	2006	1	5	112	31-Oct-14	12	Blue	l	1	0.9902	C	L	AKTC	WJBL	rrrr	bbbb	4	647	1	5	112	31-Oct-14	13	Blue	h	1	0.8817	H	G	TNAH	ULFG	bbbb	rrrr	4	647	1	5	112	31-Oct-14	14	Blue	g	1	1.0891	Y	G	WOTY	AVRG	rrbr	bbrb	4	647	1	5	112	31-Oct-14	15	Blue	n	1	1.8327	A	N	KSVA	TYGN	rbrr	brbb	4	647	1	5	112	31-Oct-14	16	Blue	r	1	0.6652	R	A	CXUR	BGVA	rbbb	brrr	4	2006	1	5	112	31-Oct-14	1	Red	a	1	0.7342	Z	A	QLUZ	KHJA	rrbb	bbrr	4	646	1	5	112	31-Oct-14	2	Red	m	0	0.8425	Q	O	HKBQ	RMCO	rbbr	brrb	4	646	1	5	112	31-Oct-14	3	Red	a	1	0.5182	A	U	ZPVA	EFTU	rbrr	brbb	4	2006	1	5	112	31-Oct-14	4	Red	p	1	0.6279	N	P	XWEN	TRQP	brbb	rbrr	4	2006	1	5	112	31-Oct-14	5	Red	s	0	2.1007	U	M	WRLU	JCVM	rrrb	bbbr	4	646	1	5	112	31-Oct-14	6	Red	e	0	1.8567	V	S	ATDV	QRJS	rbbr	brrb	4	646	1	5	112	31-Oct-14	7	Red	q	0	1.1041	K	G	WCHK	VUEG	brrr	rbbb	4	2006	1	5	112	31-Oct-14	8	Red	y	1	0.4978	U	Y	RKTU	AHQY	bbrb	rrbr	4	2006	1	5	112	31-Oct-14	9	Red	f	1	1.0221	F	Y	QZXF	THAY	brrr	rbbb	4	646	1	5	112	31-Oct-14	10	Red	o	0	0.691	K	T	VAEK	YFST	brbr	rbrb	4	2006	1	5	112	31-Oct-14	11	Red	l	1	0.9528	L	Q	USPL	EIOQ	bbbr	rrrb	4	646	1	5	112	31-Oct-14	12	Red	d	1	0.7116	D	B	UCID	EFRB	rbrr	brbb	4	2006	1	5	112	31-Oct-14	13	Red	r	1	0.7735	R	T	CABR	ZLXT	brrr	rbbb	4	646	1	5	112	31-Oct-14	14	Red	b	0	0.9223	T	E	RKCT	GBXE	rbrr	brbb	4	2006	1	5	112	31-Oct-14	15	Red	k	0	1.4159	F	D	ZGEF	CXTD	rrrb	bbbr	4	646	1	5	112	31-Oct-14	16	Red	k	1	0.8548	K	R	EOIK	ZVUR	bbrr	rrbb	4	2006	1	5	112	31-Oct-14	1	Blue	w	0	1.2641	C	L	QC	XL	rb	br	2	2005	1	5	112	31-Oct-14	2	Blue	c	0	0.7832	M	K	RM	FK	bb	rr	2	646	1	5	112	31-Oct-14	3	Blue	u	0	2.9046	Z	D	KZ	WD	rr	bb	2	646	1	5	112	31-Oct-14	4	Blue	m	0	1.0221	Z	K	WZ	BK	bb	rr	2	646	1	5	112	31-Oct-14	5	Blue	w	0	17.4392	P	Q	EP	VQ	rb	br	2	2005	1	5	112	31-Oct-14	6	Blue	q	0	2.8017	S	M	HS	KM	rr	bb	2	2005	1	5	112	31-Oct-14	7	Blue	s	1	0.7884	H	S	CH	MS	br	rb	2	2005	1	5	112	31-Oct-14	8	Blue	o	1	1.965	O	L	ZO	XL	rb	br	2	646	1	5	112	31-Oct-14	9	Blue	j	0	1.389	F	R	XF	WR	bb	rr	2	646	1	5	112	31-Oct-14	10	Blue	q	0	1.0563	S	F	ES	CF	bb	rr	2	646	1	5	112	31-Oct-14	11	Blue	p	1	0.3837	I	P	WI	EP	rr	bb	2	2005	1	5	112	31-Oct-14	12	Blue	w	0	0.9993	I	D	QI	YD	rr	bb	2	2005	1	5	112	31-Oct-14	13	Blue	d	0	1.0577	G	X	TG	CX	rr	bb	2	2005	1	5	112	31-Oct-14	14	Blue	q	0	0.8396	W	Y	HW	MY	rb	br	2	646	1	5	112	31-Oct-14	15	Blue	j	0	0.0227	L	V	BL	EV	rb	br	2	2005	1	5	112	31-Oct-14	16	Blue	n	0	0.9692	E	H	VE	AH	bb	rr	2	646	1	5	112	31-Oct-14	1	Red	k	0	0.5493	I	S	VI	WS	rr	bb	2	646	1	5	112	31-Oct-14	2	Red	s	1	0.3498	I	S	LI	DS	bb	rr	2	2006	1	5	112	31-Oct-14	3	Red	r	0	0.7831	Q	Z	EQ	UZ	rb	br	2	2006	1	5	112	31-Oct-14	4	Red	a	1	0.6	A	X	MA	TX	br	rb	2	2006	1	5	112	31-Oct-14	5	Red	y	0	1.5598	O	F	TO	EF	bb	rr	2	646	1	5	112	31-Oct-14	6	Red	g	0	3.1648	Q	V	GQ	OV	br	rb	2	646	1	5	112	31-Oct-14	7	Red	w	1	0.7149	H	W	JH	OW	rb	br	2	2006	1	5	112	31-Oct-14	8	Red	x	0	1.4855	K	O	SK	NO	rr	bb	2	646	1	5	112	31-Oct-14	9	Red	a	1	0.6784	A	V	NA	MV	br	rb	2	2006	1	5	112	31-Oct-14	10	Red	x	0	1.1867	S	D	VS	PD	br	rb	2	646	1	5	112	31-Oct-14	11	Red	e	1	0.4535	E	K	WE	TK	br	rb	2	2006	1	5	112	31-Oct-14	12	Red	b	1	0.8986	T	B	LT	ZB	bb	rr	2	646	1	5	112	31-Oct-14	13	Red	k	1	2.9518	K	X	CK	VX	br	rb	2	2006	1	5	112	31-Oct-14	14	Red	t	1	1.4291	E	T	CE	BT	rb	br	2	646	1	5	112	31-Oct-14	15	Red	w	0	2.8632	B	F	AB	HF	bb	rr	2	646	1	5	112	31-Oct-14	16	Red	p	0	0.7122	K	L	OK	QL	rb	br	2	2006	1	5	112	31-Oct-14	1	Blue	m	0	0.5789	J	K	J	K	b	r	1	2006	1	5	112	31-Oct-14	2	Blue	a	1	0.4891	A	X	A	X	b	r	1	2006	1	5	112	31-Oct-14	3	Blue	e	1	0.8351	X	E	X	E	r	b	1	646	1	5	112	31-Oct-14	4	Blue	r	1	0.3849	R	Z	R	Z	b	r	1	2006	1	5	112	31-Oct-14	5	Blue	b	1	1.7663	B	X	B	X	b	r	1	646	1	5	112	31-Oct-14	6	Blue	u	1	1.4355	F	U	F	U	r	b	1	646	1	5	112	31-Oct-14	7	Blue	o	0	1.1236	P	Q	P	Q	r	b	1	646	1	5	112	31-Oct-14	8	Blue	s	0	1.9431	S	Z	S	Z	r	b	1	646	1	5	112	31-Oct-14	9	Blue	w	1	0.3658	O	W	O	W	r	b	1	2006	1	5	112	31-Oct-14	10	Blue	e	1	0.7083	E	S	E	S	b	r	1	2006	1	5	112	31-Oct-14	11	Blue	d	1	0.6309	D	A	D	A	b	r	1	2006	1	5	112	31-Oct-14	12	Blue	a	1	1.0275	I	A	I	A	r	b	1	646	1	5	112	31-Oct-14	13	Blue	m	0	1.4341	G	M	G	M	b	r	1	646	1	5	112	31-Oct-14	14	Blue	b	0	2.1877	Z	F	Z	F	r	b	1	2006	1	5	112	31-Oct-14	15	Blue	k	1	0.794	K	E	K	E	b	r	1	646	1	5	112	31-Oct-14	16	Blue	t	1	0.4015	I	T	I	T	r	b	1	2006	1	5	112	31-Oct-14	1	Red	n	0	0.4871	O	R	O	R	b	r	1	2006	1	5	112	31-Oct-14	2	Red	m	1	0.7044	M	L	M	L	r	b	1	647	1	5	112	31-Oct-14	3	Red	v	1	0.7473	V	L	V	L	r	b	1	2006	1	5	112	31-Oct-14	4	Red	p	0	0.9168	M	K	M	K	b	r	1	647	1	5	112	31-Oct-14	5	Red	w	0	0.64	D	I	D	I	r	b	1	2006	1	5	112	31-Oct-14	6	Red	g	0	0.7564	Y	F	Y	F	r	b	1	2006	1	5	112	31-Oct-14	7	Red	o	1	0.9801	O	T	O	T	r	b	1	647	1	5	112	31-Oct-14	8	Red	a	0	0.7483	W	D	W	D	b	r	1	647	1	5	112	31-Oct-14	9	Red	b	1	0.9092	B	S	B	S	r	b	1	647	1	5	112	31-Oct-14	10	Red	e	0	1.0077	E	P	E	P	b	r	1	647	1	5	112	31-Oct-14	11	Red	u	1	0.6949	U	W	U	W	r	b	1	647	1	5	112	31-Oct-14	12	Red	p	0	0.0012	P	B	P	B	b	r	1	2006	1	5	112	31-Oct-14	13	Red	n	0	0.709	E	A	E	A	r	b	1	2006	1	5	112	31-Oct-14	14	Red	q	0	1.0632	W	Z	W	Z	r	b	1	647	1	5	112	31-Oct-14	15	Red	l	1	1.1732	K	L	K	L	b	r	1	2006	1	5	112	31-Oct-14	16	Red	y	1	0.5995	Y	H	Y	H	r	b	1	2006	1	5	112	31-Oct-14	1	Blue	q	0	1.7981	N	K	NMZQ	KVRO	r	b	1	2006	1	5	012	31-Oct-14	2	Blue	l	1	0.5627	T	L	QTEU	WLVD	rr	bb	2	2006	1	5	012	31-Oct-14	3	Blue	o	0	1.5069	G	H	GART	HSCB	r	b	1	2006	1	5	012	31-Oct-14	4	Blue	u	0	1.3457	A	G	MATF	KGIV	bb	rr	2	647	1	5	012	31-Oct-14	5	Blue	v	1	1.6947	K	V	KZTA	VMPE	r	b	1	2006	1	5	012	31-Oct-14	6	Blue	b	0	3.1445	D	U	SDWH	AUOV	br	rb	2	2006	1	5	012	31-Oct-14	7	Blue	h	1	0.9765	H	Y	OLHJ	XMYZ	rbb	brr	3	2006	1	5	012	31-Oct-14	8	Blue	b	0	0.9551	W	N	CGWM	PZNY	bbr	rrb	3	647	1	5	012	31-Oct-14	9	Blue	b	1	0.4335	R	B	FNCR	SIAB	rrrr	bbbb	4	2006	1	5	012	31-Oct-14	10	Blue	w	0	5.3329	V	T	VZHR	TKJN	r	b	1	647	1	5	012	31-Oct-14	11	Blue	x	0	1.2781	Z	A	LZTR	BAQS	rb	br	2	647	1	5	012	31-Oct-14	12	Blue	o	0	1.0224	N	U	OJNI	DQUF	rrb	bbr	3	647	1	5	012	31-Oct-14	13	Blue	q	0	1.2875	S	E	CSPD	XEHR	bb	rr	2	2006	1	5	012	31-Oct-14	14	Blue	n	0	5.0693	G	P	GOTX	PMBS	b	r	1	647	1	5	012	31-Oct-14	15	Blue	r	0	2.3612	C	Q	TSRC	LHGQ	brrb	rbbr	4	647	1	5	012	31-Oct-14	16	Blue	u	0	1.1111	D	V	LXPD	OARV	bbbr	rrrb	4	2006	1	5	012	31-Oct-14	17	Blue	u	0	1.1113	J	Y	FOUJ	LKTY	rbrr	brbb	4	647	1	5	012	31-Oct-14	18	Blue	r	0	0.8948	E	C	LMHE	BGXC	brbr	rbrb	4	647	1	5	012	31-Oct-14	19	Blue	l	1	1.6187	P	L	CPIS	ALZY	br	rb	2	647	1	5	012	31-Oct-14	20	Blue	c	0	1.296	B	K	IABY	NQKG	rrb	bbr	3	2006	1	5	012	31-Oct-14	21	Blue	w	0	0.785	B	L	DYEB	HXWL	rrrr	bbbb	4	647	1	5	012	31-Oct-14	22	Blue	k	0	1.1951	N	J	UGNA	OYJC	rbb	brr	3	647	1	5	012	31-Oct-14	23	Blue	h	0	7.1807	R	B	RFNS	BGTU	b	r	1	2006	1	5	012	31-Oct-14	24	Blue	l	0	1.0739	V	D	APSV	XQBD	rbbr	brrb	4	2006	1	5	012	31-Oct-14	25	Blue	m	0	1.5111	L	R	ZLGP	WRBX	rb	br	2	647	1	5	012	31-Oct-14	26	Blue	l	0	5.4614	A	N	APIO	NRSQ	b	r	1	647	1	5	012	31-Oct-14	27	Blue	p	0	1.0352	P	T	OPDV	YTHN	br	rb	2	2006	1	5	012	31-Oct-14	28	Blue	b	0	0.431	Q	T	YVCQ	UAPT	brbr	rbrb	4	2006	1	5	012	31-Oct-14	29	Blue	w	0	1.3265	X	Q	FIXV	HOQT	brb	rbr	3	2006	1	5	012	31-Oct-14	30	Blue	f	1	4.603	C	F	CKHJ	FRZA	r	b	1	647	1	5	012	31-Oct-14	31	Blue	y	1	1.2802	P	Y	WNPL	XKYF	rrr	bbb	3	2006	1	5	012	31-Oct-14	32	Blue	k	0	0.8803	I	Q	FTIS	LWQV	brb	rbr	3	647	1	5	012	31-Oct-14	1	Red	i	1	1.4283	F	I	PFYB	GIDA	bb	rr	2	646	1	5	012	31-Oct-14	2	Red	n	0	1.0842	Y	E	YNLV	EQJH	b	r	1	646	1	5	012	31-Oct-14	3	Red	w	0	0.8261	I	B	JIRA	VBHY	rb	br	2	646	1	5	012	31-Oct-14	4	Red	w	0	0.5685	M	P	MJRS	PDGZ	b	r	1	2006	1	5	012	31-Oct-14	5	Red	q	0	2.592	E	T	EPHM	TKAX	b	r	1	2006	1	5	012	31-Oct-14	6	Red	h	1	0.9073	H	E	STHN	LREV	bbr	rrb	3	2006	1	5	012	31-Oct-14	7	Red	c	1	1.042	C	M	WJCE	TVMP	brr	rbb	3	2006	1	5	012	31-Oct-14	8	Red	t	1	1.2184	J	T	IBJH	COTW	rrb	bbr	3	646	1	5	012	31-Oct-14	9	Red	n	0	0.988	Y	M	EYDJ	OMGT	br	rb	2	646	1	5	012	31-Oct-14	10	Red	r	1	1.0943	R	E	GRSL	OEZA	br	rb	2	2006	1	5	012	31-Oct-14	11	Red	s	0	4.5948	J	U	JPMI	UHOB	r	b	1	646	1	5	012	31-Oct-14	12	Red	o	1	0.6749	P	O	QZFP	HERO	rrbb	bbrr	4	2006	1	5	012	31-Oct-14	13	Red	q	0	1.0567	B	M	ZPXB	JSEM	rrrr	bbbb	4	646	1	5	012	31-Oct-14	14	Red	q	0	1.6087	G	O	XLGB	PEOU	bbr	rrb	3	646	1	5	012	31-Oct-14	15	Red	a	0	1.3664	C	R	LPDC	HITR	bbbr	rrrb	4	646	1	5	012	31-Oct-14	16	Red	w	0	1.2613	Q	R	SWZQ	JMER	brbb	rbrr	4	646	1	5	012	31-Oct-14	17	Red	y	0	1.2704	T	Q	JETG	PIQH	rrb	bbr	3	646	1	5	012	31-Oct-14	18	Red	l	0	1.3843	F	R	LNFT	HCRK	rbb	brr	3	2006	1	5	012	31-Oct-14	19	Red	w	0	0.8046	P	O	KMPD	CEOJ	brb	rbr	3	646	1	5	012	31-Oct-14	20	Red	q	0	1.3817	M	O	AMIK	NOST	br	rb	2	2006	1	5	012	31-Oct-14	21	Red	l	0	0.0213	F	J	YGPF	EDSJ	rrbb	bbrr	4	2006	1	5	012	31-Oct-14	22	Red	w	0	2.5769	O	U	LONT	IUKJ	br	rb	2	646	1	5	012	31-Oct-14	23	Red	q	0	0.7619	C	H	CYEN	HSVA	r	b	1	2006	1	5	012	31-Oct-14	24	Red	m	0	1.7546	G	V	GLIH	VTZM	r	b	1	2006	1	5	012	31-Oct-14	25	Red	w	0	0.813	Q	G	PFLQ	CESG	rbrr	brbb	4	2006	1	5	012	31-Oct-14	26	Red	x	0	2.3233	O	W	OGYU	WCDI	r	b	1	646	1	5	012	31-Oct-14	27	Red	n	0	1.354	J	Y	TKPJ	NUQY	bbrr	rrbb	4	2006	1	5	012	31-Oct-14	28	Red	n	0	0.8013	Q	C	VAFQ	GJDC	bbbr	rrrb	4	646	1	5	012	31-Oct-14	29	Red	e	1	1.0672	E	V	JNEZ	KQVB	rrr	bbb	3	2006	1	5	012	31-Oct-14	30	Red	o	0	1.4516	P	N	QPDY	WNBM	bb	rr	2	2006	1	5	012	31-Oct-14	31	Red	k	0	0.7627	Q	I	QXHY	ICMZ	r	b	1	646	1	5	012	31-Oct-14	32	Red	l	1	0.8854	W	L	QWHE	CLIS	rb	br	2	2006	1	5	012	31-Oct-14	1	Blue	p	0	0.6055	G	Q	GFKM	QBAV	r	b	1	2006	1	5	012	31-Oct-14	2	Blue	q	0	0.5622	S	R	BSDI	XRQC	br	rb	2	647	1	5	012	31-Oct-14	3	Blue	a	0	0.5277	G	F	TMOG	XIYF	rrrb	bbbr	4	2006	1	5	012	31-Oct-14	4	Blue	v	0	1.9051	O	I	OZCS	IYMH	r	b	1	2006	1	5	012	31-Oct-14	5	Blue	h	0	1.2258	H	Y	EHWQ	AYUD	rr	bb	2	2006	1	5	012	31-Oct-14	6	Blue	o	1	1.1338	C	O	BZCI	TPOS	bbr	rrb	3	2006	1	5	012	31-Oct-14	7	Blue	d	0	0.953	T	E	TAHJ	ESQL	r	b	1	647	1	5	012	31-Oct-14	8	Blue	d	0	0.4829	F	C	FENW	CLXO	r	b	1	647	1	5	012	31-Oct-14	9	Blue	f	1	0.6207	W	F	WADM	FRZH	r	b	1	2006	1	5	012	31-Oct-14	10	Blue	i	0	1.2903	X	D	XQPI	DMAG	r	b	1	647	1	5	012	31-Oct-14	11	Blue	o	0	0.6534	Z	F	IOTZ	GECF	rbrr	brbb	4	2006	1	5	012	31-Oct-14	12	Blue	r	0	0.8672	U	P	GEUW	MLPT	rrb	bbr	3	647	1	5	012	31-Oct-14	13	Blue	a	0	1.1959	Q	D	LKQN	VYDH	brb	rbr	3	2006	1	5	012	31-Oct-14	14	Blue	n	0	1.67	M	P	TMHL	RPJY	rr	bb	2	647	1	5	012	31-Oct-14	15	Blue	l	0	0.6993	N	C	VSON	HXDC	rrrr	bbbb	4	2006	1	5	012	31-Oct-14	16	Blue	b	0	1.2579	O	S	EKBO	CHGS	brrr	rbbb	4	647	1	5	012	31-Oct-14	17	Blue	b	0	1.8022	O	W	VOCZ	MWTR	rr	bb	2	2006	1	5	012	31-Oct-14	18	Blue	l	0	1.6557	I	G	XINM	DGYO	bb	rr	2	2006	1	5	012	31-Oct-14	19	Blue	y	0	1.4675	F	X	YILF	ASDX	rrrr	bbbb	4	647	1	5	012	31-Oct-14	20	Blue	c	1	4.395	X	C	XHVQ	CGJB	r	b	1	647	1	5	012	31-Oct-14	21	Blue	w	0	0.7659	Y	F	LOYB	WHFR	bbr	rrb	3	647	1	5	012	31-Oct-14	22	Blue	z	1	0.8259	Z	S	UMZW	EBSG	rbb	brr	3	2006	1	5	012	31-Oct-14	23	Blue	c	1	1.5303	Y	C	QYMN	VCGD	rr	bb	2	2006	1	5	012	31-Oct-14	24	Blue	n	0	0.0448	L	H	BRVL	DQPH	bbbb	rrrr	4	2006	1	5	012	31-Oct-14	25	Blue	c	1	1.3343	C	L	KCQZ	MLGH	bb	rr	2	647	1	5	012	31-Oct-14	26	Blue	l	0	0.6207	J	S	TYJN	EPSU	rrr	bbb	3	647	1	5	012	31-Oct-14	27	Blue	w	0	0.9984	D	I	CPKD	NOEI	rbbr	brrb	4	647	1	5	012	31-Oct-14	28	Blue	j	0	11.3347	B	E	BMPO	ETKG	b	r	1	2006	1	5	012	31-Oct-14	29	Blue	w	0	1.6614	S	L	NSUG	PLXT	rb	br	2	647	1	5	012	31-Oct-14	30	Blue	w	0	0.674	I	O	CZAI	PHLO	rrbb	bbrr	4	647	1	5	012	31-Oct-14	31	Blue	b	0	0.919	V	Y	BIVK	WLYA	rrb	bbr	3	647	1	5	012	31-Oct-14	32	Blue	o	0	1.1569	L	V	SILY	KOVA	bbr	rrb	3	2006	1	5	012	31-Oct-14	1	Red	w	0	0.6513	U	G	HYUJ	BEGV	rrb	bbr	3	646	1	5	012	31-Oct-14	2	Red	u	0	1.351	Q	K	GQAE	SKCR	rr	bb	2	646	1	5	012	31-Oct-14	3	Red	u	0	1.0923	S	V	SKHJ	VQNW	r	b	1	2006	1	5	012	31-Oct-14	4	Red	r	0	0.6424	A	U	CHAF	VMUJ	brb	rbr	3	646	1	5	012	31-Oct-14	5	Red	a	0	0.4082	M	C	UMHQ	ZCJB	br	rb	2	646	1	5	012	31-Oct-14	6	Red	v	1	5.5323	V	M	VTSO	MBXC	r	b	1	2006	1	5	012	31-Oct-14	7	Red	s	1	0.6629	S	I	GSPX	BICF	rr	bb	2	646	1	5	012	31-Oct-14	8	Red	u	0	1.2183	P	M	PUQT	MJLG	b	r	1	2006	1	5	012	31-Oct-14	9	Red	j	1	0.8935	J	O	YJEQ	LOGM	rr	bb	2	2006	1	5	012	31-Oct-14	10	Red	r	1	0.9207	R	M	ROPA	MGVH	r	b	1	2006	1	5	012	31-Oct-14	11	Red	a	0	0.5274	D	L	MODA	WTLU	rbb	brr	3	2006	1	5	012	31-Oct-14	12	Red	e	0	0.6992	A	W	XPAG	OVWB	bbb	rrr	3	2006	1	5	012	31-Oct-14	13	Red	w	0	1.1193	U	K	DQUG	WOKA	rbb	brr	3	646	1	5	012	31-Oct-14	14	Red	z	1	0.813	Z	D	LVZO	TKDU	rbr	brb	3	646	1	5	012	31-Oct-14	15	Red	m	0	1.0867	S	O	GIBS	RPFO	brrr	rbbb	4	646	1	5	012	31-Oct-14	16	Red	w	0	0.8124	F	N	VFUH	KNGS	br	rb	2	2006	1	5	012	31-Oct-14	17	Red	w	0	0.8308	D	R	XBED	VIUR	rrrr	bbbb	4	646	1	5	012	31-Oct-14	18	Red	o	0	0.9684	I	S	LWBI	FEKS	brrb	rbbr	4	646	1	5	012	31-Oct-14	19	Red	n	0	1.0591	L	Q	KLNE	DQWF	rb	br	2	2006	1	5	012	31-Oct-14	20	Red	l	1	1.0141	I	L	QBKI	HYPL	rbbb	brrr	4	2006	1	5	012	31-Oct-14	21	Red	c	0	3.0853	D	I	DAWO	IPZQ	r	b	1	646	1	5	012	31-Oct-14	22	Red	v	0	0.7237	J	Y	JMRH	YTBI	r	b	1	646	1	5	012	31-Oct-14	23	Red	c	0	2.339	Q	Z	GMOQ	ISYZ	bbbr	rrrb	4	2006	1	5	012	31-Oct-14	24	Red	a	0	1.3015	W	I	BWQC	LIES	bb	rr	2	2006	1	5	012	31-Oct-14	25	Red	h	1	0.8149	H	S	VILH	NWJS	rrbr	bbrb	4	646	1	5	012	31-Oct-14	26	Red	s	1	0.9407	S	F	SPCG	FIJM	r	b	1	646	1	5	012	31-Oct-14	27	Red	n	0	1.1032	E	S	BEXA	ZSPR	rr	bb	2	646	1	5	012	31-Oct-14	28	Red	b	1	0.7767	A	B	WSJA	CGIB	rrbb	bbrr	4	2006	1	5	012	31-Oct-14	29	Red	b	1	1.1318	B	T	AGBL	WJTD	rrr	bbb	3	2006	1	5	012	31-Oct-14	30	Red	z	1	0.738	T	Z	VKTL	ICZH	rrb	bbr	3	2006	1	5	012	31-Oct-14	31	Red	b	0	1.3209	H	W	MGUH	TBVW	rrrb	bbbr	4	2006	1	5	012	31-Oct-14	32	Red	m	0	1.1966	R	Q	RAYO	QEWS	r	b	1	646	1	5	015	5-Nov-14	1	Red	k	0	1.3264	O	W	IO	AW	rb	br	2	647	1	4	115	5-Nov-14	2	Red	w	1	0.8919	W	P	VW	NP	rr	bb	2	2006	1	4	115	5-Nov-14	3	Red	m	1	0.4423	M	N	SM	ZN	br	rb	2	2006	1	4	115	5-Nov-14	4	Red	i	1	0.9192	F	I	KF	RI	bb	rr	2	647	1	4	115	5-Nov-14	5	Red	n	1	1.4586	F	N	YF	RN	rb	br	2	647	1	4	115	5-Nov-14	6	Red	w	0	1.0595	M	H	LM	CH	bb	rr	2	647	1	4	115	5-Nov-14	7	Red	c	0	1.0898	H	D	MH	UD	br	rb	2	647	1	4	115	5-Nov-14	8	Red	j	1	0.5765	J	G	WJ	HG	br	rb	2	2006	1	4	115	5-Nov-14	9	Red	b	1	0.7137	B	J	XB	UJ	br	rb	2	2006	1	4	115	5-Nov-14	10	Red	m	1	0.9878	W	M	GW	EM	rb	br	2	647	1	4	115	5-Nov-14	11	Red	c	1	0.7585	C	S	LC	IS	br	rb	2	2006	1	4	115	5-Nov-14	12	Red	w	1	0.7751	W	N	RW	GN	rr	bb	2	647	1	4	115	5-Nov-14	13	Red	y	1	0.6413	P	Y	XP	RY	bb	rr	2	2006	1	4	115	5-Nov-14	14	Red	g	1	0.1504	F	G	OF	PG	rb	br	2	2006	1	4	115	5-Nov-14	15	Red	b	0	1.0367	C	F	LC	UF	rb	br	2	647	1	4	115	5-Nov-14	16	Red	c	1	0.7573	C	J	MC	LJ	br	rb	2	2006	1	4	115	5-Nov-14	1	Blue	d	0	0.8463	W	X	LW	HX	br	rb	2	647	1	4	115	5-Nov-14	2	Blue	q	1	0.4445	X	Q	MX	GQ	br	rb	2	2006	1	4	115	5-Nov-14	3	Blue	f	1	0.5704	O	F	YO	EF	rr	bb	2	2006	1	4	115	5-Nov-14	4	Blue	h	1	0.7397	T	H	LT	DH	br	rb	2	2006	1	4	115	5-Nov-14	5	Blue	g	1	0.5506	J	G	KJ	TG	br	rb	2	2006	1	4	115	5-Nov-14	6	Blue	b	0	1.0395	H	Z	AH	IZ	rb	br	2	647	1	4	115	5-Nov-14	7	Blue	x	1	1.136	S	X	BS	LX	br	rb	2	647	1	4	115	5-Nov-14	8	Blue	y	1	0.6196	Z	Y	SZ	OY	rr	bb	2	2006	1	4	115	5-Nov-14	9	Blue	q	0	1.7464	C	M	QC	TM	br	rb	2	647	1	4	115	5-Nov-14	10	Blue	w	1	0.3784	W	H	RW	MH	rb	br	2	2006	1	4	115	5-Nov-14	11	Blue	s	0	1.7287	B	I	EB	SI	bb	rr	2	647	1	4	115	5-Nov-14	12	Blue	j	1	0.6493	G	J	OG	YJ	br	rb	2	2006	1	4	115	5-Nov-14	13	Blue	i	1	0.7985	I	A	PI	CA	bb	rr	2	647	1	4	115	5-Nov-14	14	Blue	e	1	0.7201	N	E	FN	PE	br	rb	2	2006	1	4	115	5-Nov-14	15	Blue	p	0	2.1071	Z	F	DZ	KF	rr	bb	2	647	1	4	115	5-Nov-14	16	Blue	b	1	0.9335	U	B	SU	GB	br	rb	2	647	1	4	115	5-Nov-14	1	Red	i	1	0.5619	L	I	HEL	JGI	rrb	bbr	3	2006	1	4	115	5-Nov-14	2	Red	y	1	0.7699	G	Y	VMG	PEY	brb	rbr	3	647	1	4	115	5-Nov-14	3	Red	y	1	0.7028	Y	N	TPY	KWN	rbr	brb	3	2006	1	4	115	5-Nov-14	4	Red	m	0	1.1556	M	N	LZM	FRN	rrb	bbr	3	647	1	4	115	5-Nov-14	5	Red	n	1	0.9112	S	N	LZS	FAN	rrb	bbr	3	647	1	4	115	5-Nov-14	6	Red	v	0	1.18	P	X	NAP	JSX	bbb	rrr	3	647	1	4	115	5-Nov-14	7	Red	q	1	0.922	Q	Y	PMQ	IGY	bbr	rrb	3	2006	1	4	115	5-Nov-14	8	Red	q	1	0.6239	Q	U	SJQ	WCU	bbr	rrb	3	2006	1	4	115	5-Nov-14	9	Red	u	1	1.1196	H	U	OSH	MZU	brb	rbr	3	2006	1	4	115	5-Nov-14	10	Red	j	1	0.5355	K	J	UTK	CQJ	brb	rbr	3	2006	1	4	115	5-Nov-14	11	Red	g	1	0.6105	M	G	XIM	BEG	brb	rbr	3	2006	1	4	115	5-Nov-14	12	Red	w	0	0.8113	D	Q	PUD	OBQ	bbb	rrr	3	2006	1	4	115	5-Nov-14	13	Red	b	0	2.6996	H	A	MPH	QCA	brb	rbr	3	647	1	4	115	5-Nov-14	14	Red	x	1	0.7144	X	L	ETX	MBL	rbr	brb	3	647	1	4	115	5-Nov-14	15	Red	f	1	0.702	F	I	OSF	XKI	brr	rbb	3	647	1	4	115	5-Nov-14	16	Red	f	1	0.8104	D	F	LPD	HJF	rrb	bbr	3	647	1	4	115	5-Nov-14	1	Blue	l	1	0.4052	L	H	UFL	BNH	brb	rbr	3	2005	1	4	115	5-Nov-14	2	Blue	c	1	0.9564	C	X	WLC	HVX	bbb	rrr	3	2005	1	4	115	5-Nov-14	3	Blue	z	1	0.8027	Z	D	TAZ	RUD	bbb	rrr	3	2005	1	4	115	5-Nov-14	4	Blue	y	1	0.4525	E	Y	UQE	FOY	rbr	brb	3	2005	1	4	115	5-Nov-14	5	Blue	u	1	0.8661	U	T	KOU	MDT	bbb	rrr	3	646	1	4	115	5-Nov-14	6	Blue	r	1	1.9449	E	R	JOE	YVR	rrr	bbb	3	646	1	4	115	5-Nov-14	7	Blue	b	1	0.9061	H	B	EFH	DQB	rbr	brb	3	646	1	4	115	5-Nov-14	8	Blue	b	1	0.5762	B	P	LVB	AIP	rrb	bbr	3	2005	1	4	115	5-Nov-14	9	Blue	q	1	1.3381	M	Q	GAM	YXQ	rbr	brb	3	2005	1	4	115	5-Nov-14	10	Blue	k	1	1.0159	K	O	VNK	QDO	rbb	brr	3	646	1	4	115	5-Nov-14	11	Blue	t	1	0.4993	T	F	GMT	RVF	bbb	rrr	3	2005	1	4	115	5-Nov-14	12	Blue	g	1	0.5355	G	Q	VZG	OSQ	rrb	bbr	3	2005	1	4	115	5-Nov-14	13	Blue	m	1	1.1463	M	L	IPM	XAL	rbb	brr	3	646	1	4	115	5-Nov-14	14	Blue	n	1	0.6556	N	F	PSN	TOF	bbb	rrr	3	646	1	4	115	5-Nov-14	15	Blue	i	1	0.8134	L	I	JRL	ZYI	brr	rbb	3	646	1	4	115	5-Nov-14	16	Blue	v	1	0.7097	V	O	DWV	NXO	rrb	bbr	3	646	1	4	115	5-Nov-14	1	Red	d	0	1.7939	T	Y	T	Y	b	r	1	2006	1	4	115	5-Nov-14	2	Red	j	1	1.2536	J	L	J	L	r	b	1	646	1	4	115	5-Nov-14	3	Red	s	1	1.2693	S	E	S	E	r	b	1	646	1	4	115	5-Nov-14	4	Red	q	1	1.0758	Q	S	Q	S	r	b	1	2006	1	4	115	5-Nov-14	5	Red	k	1	0.3773	F	K	F	K	b	r	1	2006	1	4	115	5-Nov-14	6	Red	c	1	0.3509	H	C	H	C	b	r	1	2006	1	4	115	5-Nov-14	7	Red	w	0	0.5658	Z	S	Z	S	r	b	1	2006	1	4	115	5-Nov-14	8	Red	l	1	1.3812	L	B	L	B	r	b	1	646	1	4	115	5-Nov-14	9	Red	v	1	1.089	V	F	V	F	r	b	1	646	1	4	115	5-Nov-14	10	Red	o	1	0.8601	Z	O	Z	O	b	r	1	646	1	4	115	5-Nov-14	11	Red	e	1	0.3287	E	H	E	H	r	b	1	2006	1	4	115	5-Nov-14	12	Red	b	0	1.5291	P	I	P	I	b	r	1	2006	1	4	115	5-Nov-14	13	Red	k	1	0.4064	P	K	P	K	b	r	1	2006	1	4	115	5-Nov-14	14	Red	x	1	1.171	X	U	X	U	r	b	1	646	1	4	115	5-Nov-14	15	Red	y	1	0.628	Y	S	Y	S	r	b	1	646	1	4	115	5-Nov-14	16	Red	b	0	0.9373	K	A	K	A	r	b	1	646	1	4	115	5-Nov-14	1	Blue	o	0	4.9043	V	S	V	S	r	b	1	2006	1	4	115	5-Nov-14	2	Blue	m	1	0.7586	M	E	M	E	b	r	1	2006	1	4	115	5-Nov-14	3	Blue	s	1	0.4403	S	F	S	F	b	r	1	2006	1	4	115	5-Nov-14	4	Blue	y	1	1.1234	S	Y	S	Y	r	b	1	646	1	4	115	5-Nov-14	5	Blue	x	1	0.9587	A	X	A	X	r	b	1	646	1	4	115	5-Nov-14	6	Blue	f	1	0.4004	V	F	V	F	r	b	1	2006	1	4	115	5-Nov-14	7	Blue	t	1	0.1579	U	T	U	T	r	b	1	2006	1	4	115	5-Nov-14	8	Blue	u	1	0.8183	U	D	U	D	b	r	1	646	1	4	115	5-Nov-14	9	Blue	x	1	0.9363	X	T	X	T	b	r	1	646	1	4	115	5-Nov-14	10	Blue	d	1	0.5943	K	D	K	D	r	b	1	646	1	4	115	5-Nov-14	11	Blue	g	1	0.257	G	Y	G	Y	b	r	1	2006	1	4	115	5-Nov-14	12	Blue	u	1	0.7697	U	V	U	V	b	r	1	646	1	4	115	5-Nov-14	13	Blue	q	0	1.5465	H	B	H	B	r	b	1	646	1	4	115	5-Nov-14	14	Blue	k	1	0.2397	E	K	E	K	r	b	1	2006	1	4	115	5-Nov-14	15	Blue	g	1	0.9856	G	C	G	C	b	r	1	646	1	4	115	5-Nov-14	16	Blue	k	1	0.3137	V	K	V	K	r	b	1	2006	1	4	115	5-Nov-14	1	Red	r	1	0.3384	D	R	XMCD	LEGR	brbb	rbrr	4	2006	1	4	115	5-Nov-14	2	Red	q	1	1.3239	U	Q	NVBU	TCXQ	bbrb	rrbr	4	647	1	4	115	5-Nov-14	3	Red	u	1	0.3032	C	U	PDXC	ZORU	rrbb	bbrr	4	2006	1	4	115	5-Nov-14	4	Red	c	0	1.5306	H	V	MECH	FSIV	rrbr	bbrb	4	647	1	4	115	5-Nov-14	5	Red	i	1	0.6776	O	I	HUGO	XWCI	rbrb	brbr	4	2006	1	4	115	5-Nov-14	6	Red	o	1	0.4061	O	H	WGIO	XBPH	brrr	rbbb	4	2006	1	4	115	5-Nov-14	7	Red	d	1	0.8216	D	C	WFMD	AEBC	rrrr	bbbb	4	647	1	4	115	5-Nov-14	8	Red	c	1	0.7352	C	H	MERC	BVKH	bbbr	rrrb	4	647	1	4	115	5-Nov-14	9	Red	u	1	0.3092	J	U	HPNJ	OXKU	rrrb	bbbr	4	2006	1	4	115	5-Nov-14	10	Red	u	1	0.5448	U	F	WTDU	HVRF	rrbr	bbrb	4	647	1	4	115	5-Nov-14	11	Red	u	1	0.5015	U	V	JYCU	NQLV	bbbr	rrrb	4	2006	1	4	115	5-Nov-14	12	Red	c	0	4.9083	Y	V	IPJY	SROV	rrrr	bbbb	4	2006	1	4	115	5-Nov-14	13	Red	e	1	1.7278	F	E	HRIF	SUVE	brbb	rbrr	4	647	1	4	115	5-Nov-14	14	Red	o	1	0.6494	O	H	YZJO	CXNH	rbbr	brrb	4	647	1	4	115	5-Nov-14	15	Red	o	1	1.3374	D	O	PTSD	NFYO	rbrb	brbr	4	647	1	4	115	5-Nov-14	16	Red	v	1	0.3303	V	K	OMIV	BPQK	rrbr	bbrb	4	2006	1	4	115	5-Nov-14	1	Blue	i	1	0.001	I	B	PALI	UFOB	brrb	rbbr	4	2006	1	4	115	5-Nov-14	2	Blue	c	1	0.3509	M	C	UTWM	FOVC	rrrr	bbbb	4	2006	1	4	115	5-Nov-14	3	Blue	w	1	0.3695	X	W	LGHX	TBPW	rbrr	brbb	4	2006	1	4	115	5-Nov-14	4	Blue	j	1	0.0552	P	J	DYTP	OXSJ	rbrr	brbb	4	2006	1	4	115	5-Nov-14	5	Blue	d	1	2.4511	D	T	CXRD	NIKT	rrbb	bbrr	4	647	1	4	115	5-Nov-14	6	Blue	i	1	0.5796	I	S	ZQRI	DPJS	bbrb	rrbr	4	647	1	4	115	5-Nov-14	7	Blue	b	1	0.6611	B	U	YGQB	JZLU	brrb	rbbr	4	647	1	4	115	5-Nov-14	8	Blue	y	1	0.3979	Y	I	BJGY	NWOI	rbrb	brbr	4	2006	1	4	115	5-Nov-14	9	Blue	u	1	0.6728	U	G	PDMU	FXBG	rbrb	brbr	4	2006	1	4	115	5-Nov-14	10	Blue	l	1	0.8154	X	L	SBWX	GDIL	bbbr	rrrb	4	647	1	4	115	5-Nov-14	11	Blue	f	1	0.531	F	N	IPAF	CEON	bbrb	rrbr	4	2006	1	4	115	5-Nov-14	12	Blue	i	1	0.7182	I	S	MZHI	YFQS	brbb	rbrr	4	647	1	4	115	5-Nov-14	13	Blue	f	1	0.9074	F	V	DMSF	QNGV	rbrb	brbr	4	647	1	4	115	5-Nov-14	14	Blue	j	1	0.746	Q	J	SOTQ	KBZJ	rrrr	bbbb	4	647	1	4	115	5-Nov-14	15	Blue	w	0	0.6165	N	X	SRAN	IFDX	rbbb	brrr	4	2006	1	4	115	5-Nov-14	16	Blue	l	1	0.6732	L	Y	DXWL	GCFY	brrb	rbbr	4	647	1	4	115	5-Nov-14	1	Red	w	0	2.6745	G	X	GNWO	XURI	b	r	1	2006	1	4	015	5-Nov-14	2	Red	w	0	1.6087	J	S	RNJD	XFSZ	bbr	rrb	3	646	1	4	015	5-Nov-14	3	Red	a	0	0.3443	P	D	YQLP	FJND	brbr	rbrb	4	2006	1	4	015	5-Nov-14	4	Red	q	0	1.4155	W	I	WFNJ	ITUO	b	r	1	2006	1	4	015	5-Nov-14	5	Red	u	0	1.5156	Z	O	WQLZ	CTXO	rbbb	brrr	4	646	1	4	015	5-Nov-14	6	Red	l	1	1.9413	L	I	XWLN	YEIT	brr	rbb	3	2006	1	4	015	5-Nov-14	7	Red	a	0	1.5758	Q	Z	LPQR	YUZK	bbr	rrb	3	646	1	4	015	5-Nov-14	8	Red	q	0	1.3097	M	T	XNMK	WATU	brr	rbb	3	2006	1	4	015	5-Nov-14	9	Red	o	0	1.3109	I	J	NMIE	OWJU	bbb	rrr	3	2006	1	4	015	5-Nov-14	10	Red	t	1	1.2197	T	W	TSRX	WKUM	r	b	1	2006	1	4	015	5-Nov-14	11	Red	l	1	1.3318	L	Y	LKQO	YXMP	r	b	1	646	1	4	015	5-Nov-14	12	Red	y	0	1.1876	W	R	XLFW	SHIR	rrrr	bbbb	4	646	1	4	015	5-Nov-14	13	Red	m	1	0.9956	M	P	NOGM	DLWP	brrr	rbbb	4	2006	1	4	015	5-Nov-14	14	Red	k	1	1.1257	K	M	WCKZ	RGMV	brr	rbb	3	2006	1	4	015	5-Nov-14	15	Red	q	0	1.9144	J	N	OJMH	KNDU	rb	br	2	2006	1	4	015	5-Nov-14	16	Red	w	0	1.8189	R	O	NRLZ	AOPH	rb	br	2	646	1	4	015	5-Nov-14	17	Red	d	0	1.0798	M	H	XSMR	NTHY	rbb	brr	3	646	1	4	015	5-Nov-14	18	Red	i	1	1.613	I	E	IQTH	EWGV	r	b	1	646	1	4	015	5-Nov-14	19	Red	s	1	1.3195	S	D	SWUB	DOKI	r	b	1	646	1	4	015	5-Nov-14	20	Red	b	0	1.1646	I	O	CIWN	FOQA	br	rb	2	646	1	4	015	5-Nov-14	21	Red	s	0	1.8885	R	H	ZRPW	EHLB	rb	br	2	2006	1	4	015	5-Nov-14	22	Red	r	0	1.5632	X	D	GYXP	IRDM	rbr	brb	3	646	1	4	015	5-Nov-14	23	Red	h	0	1.0108	J	R	AKGJ	WLYR	rbbr	brrb	4	646	1	4	015	5-Nov-14	24	Red	k	0	1.4507	K	L	KQJD	LUOS	b	r	1	2006	1	4	015	5-Nov-14	25	Red	j	1	1.1315	H	J	CHFZ	EJDA	rb	br	2	646	1	4	015	5-Nov-14	26	Red	m	0	1.0334	D	P	MDXK	QPAJ	bb	rr	2	2006	1	4	015	5-Nov-14	27	Red	b	0	1.3192	I	T	WIZR	OTXF	br	rb	2	646	1	4	015	5-Nov-14	28	Red	b	0	1.0975	G	D	PZNG	UEXD	rrrb	bbbr	4	2006	1	4	015	5-Nov-14	29	Red	w	0	1.3214	T	Q	NAPT	DCIQ	rrrr	bbbb	4	646	1	4	015	5-Nov-14	30	Red	r	1	1.1632	R	C	QETR	DMOC	bbbr	rrrb	4	2006	1	4	015	5-Nov-14	31	Red	e	1	1.7667	E	J	EFDN	JGWT	r	b	1	646	1	4	015	5-Nov-14	32	Red	g	1	1.228	G	B	OGCS	ABUX	rr	bb	2	2006	1	4	015	5-Nov-14	1	Blue	g	1	1.5063	Q	G	UQHD	CGBS	br	rb	2	2006	1	4	015	5-Nov-14	2	Blue	k	0	2.4582	O	Y	RMON	PHYX	rbb	brr	3	647	1	4	015	5-Nov-14	3	Blue	s	0	1.0449	X	S	MYEX	UINS	rrrb	bbbr	4	2006	1	4	015	5-Nov-14	4	Blue	o	1	0.9127	O	X	VYPO	ESTX	brrb	rbbr	4	2006	1	4	015	5-Nov-14	5	Blue	x	1	1.4949	X	W	FMXJ	ABWI	rbb	brr	3	2006	1	4	015	5-Nov-14	6	Blue	a	0	1.7599	G	U	FOGY	MRUH	rbr	brb	3	647	1	4	015	5-Nov-14	7	Blue	w	0	1.6046	D	T	DMFE	TNUK	r	b	1	647	1	4	015	5-Nov-14	8	Blue	r	0	3.1357	C	H	CQYN	HZDA	b	r	1	2006	1	4	015	5-Nov-14	9	Blue	z	0	1.2807	Y	K	TAZY	JWXK	brbr	rbrb	4	647	1	4	015	5-Nov-14	10	Blue	a	0	1.7762	P	S	XPVM	NSCA	rb	br	2	647	1	4	015	5-Nov-14	11	Blue	g	0	1.0159	R	L	ORMK	SLPH	br	rb	2	2006	1	4	015	5-Nov-14	12	Blue	l	1	1.358	L	W	LVYD	WPRU	b	r	1	2006	1	4	015	5-Nov-14	13	Blue	n	1	1.3052	N	L	NWJX	LAGH	b	r	1	647	1	4	015	5-Nov-14	14	Blue	b	0	1.6794	Y	I	OYED	WICR	rr	bb	2	647	1	4	015	5-Nov-14	15	Blue	p	0	1.0905	Q	P	YDEQ	LMFP	rbrb	brbr	4	647	1	4	015	5-Nov-14	16	Blue	l	1	0.8236	O	L	OYMA	LQUT	r	b	1	2006	1	4	015	5-Nov-14	17	Blue	q	0	1.846	F	M	FBYZ	MOSR	b	r	1	647	1	4	015	5-Nov-14	18	Blue	t	0	1.5236	V	D	WOAV	QNKD	brbr	rbrb	4	647	1	4	015	5-Nov-14	19	Blue	m	0	1.1707	T	X	KITG	FEXP	bbr	rrb	3	647	1	4	015	5-Nov-14	20	Blue	g	0	0.9269	N	O	SNMJ	UOPY	br	rb	2	2006	1	4	015	5-Nov-14	21	Blue	s	1	1.7546	S	J	MSGY	IJAL	rb	br	2	647	1	4	015	5-Nov-14	22	Blue	w	0	2.8004	Y	R	YFEV	RBHW	b	r	1	2006	1	4	015	5-Nov-14	23	Blue	c	0	1.3958	W	D	UWLA	CDYO	br	rb	2	647	1	4	015	5-Nov-14	24	Blue	b	0	1.1263	W	Q	UVWP	YGQR	bbb	rrr	3	647	1	4	015	5-Nov-14	25	Blue	h	0	1.2596	Q	O	AQZW	LODJ	rb	br	2	2006	1	4	015	5-Nov-14	26	Blue	b	1	1.1899	E	B	ZLEI	MSBQ	rbr	brb	3	2006	1	4	015	5-Nov-14	27	Blue	f	1	1.0586	F	B	VYFT	KABH	brb	rbr	3	2006	1	4	015	5-Nov-14	28	Blue	d	0	1.7583	Z	X	PRVZ	OHJX	brrr	rbbb	4	2006	1	4	015	5-Nov-14	29	Blue	b	0	1.1907	V	K	SQVB	HMKP	rrb	bbr	3	2006	1	4	015	5-Nov-14	30	Blue	u	1	0.4222	F	U	LZRF	PHNU	rbrr	brbb	4	2006	1	4	015	5-Nov-14	31	Blue	n	1	1.4207	F	N	JKIF	WZON	brbr	rbrb	4	647	1	4	015	5-Nov-14	32	Blue	m	0	1.7502	E	P	EDUJ	PQHA	r	b	1	647	1	4	015	5-Nov-14	1	Red	w	0	1.9367	F	V	FIOW	VNGX	r	b	1	646	1	4	015	5-Nov-14	2	Red	r	0	1.3518	S	K	ASEF	IKLW	bb	rr	2	2006	1	4	015	5-Nov-14	3	Red	q	0	1.1746	U	A	SBUG	HWAP	rrr	bbb	3	646	1	4	015	5-Nov-14	4	Red	x	1	1.283	X	V	BMOX	DWGV	rbrr	brbb	4	646	1	4	015	5-Nov-14	5	Red	x	0	1.9724	M	I	GJLM	ANWI	bbrr	rrbb	4	646	1	4	015	5-Nov-14	6	Red	o	1	2.6687	G	O	ZGKM	BOQJ	rb	br	2	646	1	4	015	5-Nov-14	7	Red	a	1	1.282	A	U	AGHT	URKF	r	b	1	2006	1	4	015	5-Nov-14	8	Red	c	0	1.2007	F	E	RFUS	NEPL	br	rb	2	646	1	4	015	5-Nov-14	9	Red	l	1	1.6919	L	D	JLQY	TDNP	rr	bb	2	2006	1	4	015	5-Nov-14	10	Red	r	1	1.2948	X	R	BIXZ	TGRQ	rbb	brr	3	2006	1	4	015	5-Nov-14	11	Red	e	1	1.2127	E	B	EWYP	BOXN	r	b	1	646	1	4	015	5-Nov-14	12	Red	z	0	1.5199	O	Q	EYOI	VPQH	rrb	bbr	3	2006	1	4	015	5-Nov-14	13	Red	y	1	0.9394	K	Y	WVIK	UPSY	brbb	rbrr	4	2006	1	4	015	5-Nov-14	14	Red	z	0	0.9622	E	S	XTIE	NJUS	brbb	rbrr	4	2006	1	4	015	5-Nov-14	15	Red	v	0	1.5739	I	D	UPIO	KYDG	rrb	bbr	3	646	1	4	015	5-Nov-14	16	Red	n	0	1.3378	F	I	YFXH	JILA	rr	bb	2	646	1	4	015	5-Nov-14	17	Red	r	1	0.5452	R	C	VARN	DSCE	rbr	brb	3	2006	1	4	015	5-Nov-14	18	Red	z	0	1.1822	Y	R	HVUY	TFDR	rrrb	bbbr	4	646	1	4	015	5-Nov-14	19	Red	q	0	1.5979	S	E	SXFN	ETRP	b	r	1	646	1	4	015	5-Nov-14	20	Red	b	0	1.0657	N	E	NYBJ	ELTM	r	b	1	2006	1	4	015	5-Nov-14	21	Red	t	1	1.3129	T	M	XTGQ	LMNU	br	rb	2	646	1	4	015	5-Nov-14	22	Red	r	0	3.2212	I	U	IBHS	UXZQ	b	r	1	646	1	4	015	5-Nov-14	23	Red	r	0	0.8992	S	Q	XCHS	ZRPQ	rbbr	brrb	4	646	1	4	015	5-Nov-14	24	Red	z	1	0.4501	Z	D	PYZT	WSDH	rbr	brb	3	2006	1	4	015	5-Nov-14	25	Red	p	0	1.9114	E	J	WQEH	GLJT	brr	rbb	3	646	1	4	015	5-Nov-14	26	Red	n	1	0.3006	L	N	XBJL	ZYON	rrbb	bbrr	4	2006	1	4	015	5-Nov-14	27	Red	w	0	1.5672	V	X	EVHR	CXAG	br	rb	2	2006	1	4	015	5-Nov-14	28	Red	q	0	1.0275	O	N	OXDP	NKEF	b	r	1	2006	1	4	015	5-Nov-14	29	Red	q	0	1.0918	U	V	MCUW	ZAVO	rrr	bbb	3	646	1	4	015	5-Nov-14	30	Red	m	0	2.9709	X	K	PXAQ	ZKSB	bb	rr	2	2006	1	4	015	5-Nov-14	31	Red	y	0	1.131	R	A	KITR	ZGOA	rrbr	bbrb	4	2006	1	4	015	5-Nov-14	32	Red	d	0	2.2232	M	S	MWQD	SHYI	r	b	1	2006	1	4	015	5-Nov-14	1	Blue	b	0	1.3433	W	N	MYEW	RKDN	bbrr	rrbb	4	2006	1	4	015	5-Nov-14	2	Blue	w	0	0.6555	Y	K	ECLY	RMIK	rbrb	brbr	4	2006	1	4	015	5-Nov-14	3	Blue	r	0	0.8801	Z	U	NXVZ	WISU	rrbr	bbrb	4	647	1	4	015	5-Nov-14	4	Blue	m	0	1.9822	Y	Q	LYFT	AQWM	bb	rr	2	2006	1	4	015	5-Nov-14	5	Blue	w	0	1.3025	C	X	OHCQ	PFXR	rrr	bbb	3	2006	1	4	015	5-Nov-14	6	Blue	w	0	2.4211	V	S	TVGF	JSBI	rb	br	2	647	1	4	015	5-Nov-14	7	Blue	a	0	1.4356	Y	T	YMBE	TSRU	b	r	1	2006	1	4	015	5-Nov-14	8	Blue	d	0	1.6213	Y	H	EJYT	IKHV	brr	rbb	3	647	1	4	015	5-Nov-14	9	Blue	s	1	1.0181	X	S	CMXW	QNSV	bbr	rrb	3	647	1	4	015	5-Nov-14	10	Blue	z	0	1.3762	E	R	ETLA	RJXO	r	b	1	647	1	4	015	5-Nov-14	11	Blue	s	0	2.5329	V	M	VZFB	MCRA	b	r	1	647	1	4	015	5-Nov-14	12	Blue	b	0	1.213	W	T	WUBL	TYDH	b	r	1	647	1	4	015	5-Nov-14	13	Blue	w	0	1.0711	K	N	HKZQ	WNTA	rb	br	2	647	1	4	015	5-Nov-14	14	Blue	b	0	2.0955	U	I	AUHK	YIWQ	bb	rr	2	2006	1	4	015	5-Nov-14	15	Blue	q	0	1.4564	Y	G	YUDC	GJAF	b	r	1	2006	1	4	015	5-Nov-14	16	Blue	j	1	0.8985	J	U	EJQR	OUHA	rb	br	2	647	1	4	015	5-Nov-14	17	Blue	b	0	0.7037	N	X	CSNH	OUXF	rrb	bbr	3	2006	1	4	015	5-Nov-14	18	Blue	q	0	1.818	C	A	CFNX	AOTD	r	b	1	2006	1	4	015	5-Nov-14	19	Blue	k	0	1.0547	E	G	LAEI	VRGH	brr	rbb	3	647	1	4	015	5-Nov-14	20	Blue	c	0	1.4164	E	V	WDAE	XUBV	brrr	rbbb	4	647	1	4	015	5-Nov-14	21	Blue	y	0	2.7244	M	K	VZIM	LWYK	brrr	rbbb	4	647	1	4	015	5-Nov-14	22	Blue	a	0	1.0583	C	L	TCEN	HLRJ	rr	bb	2	2006	1	4	015	5-Nov-14	23	Blue	w	0	0.8379	G	A	ODWG	VYTA	bbbb	rrrr	4	2006	1	4	015	5-Nov-14	24	Blue	s	1	1.7311	S	J	SLIZ	JAEQ	b	r	1	647	1	4	015	5-Nov-14	25	Blue	q	0	1.5455	I	J	IUWD	JXTC	b	r	1	2006	1	4	015	5-Nov-14	26	Blue	w	1	0.8517	N	W	VXJN	BPIW	brbr	rbrb	4	2006	1	4	015	5-Nov-14	27	Blue	y	1	1.1549	Y	W	PYZH	DWAL	rb	br	2	2006	1	4	015	5-Nov-14	28	Blue	p	0	1.2869	T	L	HITK	QSLX	bbb	rrr	3	647	1	4	015	5-Nov-14	29	Blue	s	0	1.2243	B	V	QZBK	AEVI	brr	rbb	3	2006	1	4	015	5-Nov-14	30	Blue	q	0	1.1321	E	F	ABKE	IULF	rbbb	brrr	4	647	1	4	015	5-Nov-14	31	Blue	o	0	1.84	T	A	STOW	KAXZ	rb	br	2	647	1	4	015	5-Nov-14	32	Blue	k	1	0.4461	H	K	WBHY	QEKX	brr	rbb	3	2006	1	4	016	6-Nov-14	1	Blue	q	0	4.2767	B	Y	B	Y	r	b	1	2006	1	5	116	6-Nov-14	2	Blue	k	1	0.2246	A	K	A	K	r	b	1	647	1	5	116	6-Nov-14	3	Blue	c	1	0.5642	S	C	S	C	r	b	1	647	1	5	116	6-Nov-14	4	Blue	y	1	3.9072	Y	D	Y	D	b	r	1	2006	1	5	116	6-Nov-14	5	Blue	g	1	3.5424	G	V	G	V	b	r	1	2006	1	5	116	6-Nov-14	6	Blue	n	1	0.9488	N	T	N	T	b	r	1	647	1	5	116	6-Nov-14	7	Blue	b	1	1.6947	B	J	B	J	b	r	1	2006	1	5	116	6-Nov-14	8	Blue	s	1	1.5505	S	Z	S	Z	b	r	1	2006	1	5	116	6-Nov-14	9	Blue	p	1	0.4123	P	Y	P	Y	b	r	1	2006	1	5	116	6-Nov-14	10	Blue	j	1	1.0484	J	P	J	P	b	r	1	647	1	5	116	6-Nov-14	11	Blue	p	1	0.8779	U	P	U	P	r	b	1	647	1	5	116	6-Nov-14	12	Blue	e	1	0.5227	E	S	E	S	b	r	1	647	1	5	116	6-Nov-14	13	Blue	s	1	0.4278	U	S	U	S	r	b	1	2006	1	5	116	6-Nov-14	14	Blue	y	1	0.7832	W	Y	W	Y	r	b	1	647	1	5	116	6-Nov-14	15	Blue	t	1	0.5824	Z	T	Z	T	r	b	1	647	1	5	116	6-Nov-14	16	Blue	i	1	0.3571	I	N	I	N	b	r	1	2006	1	5	116	6-Nov-14	1	Red	v	0	0.6803	B	L	B	L	b	r	1	2006	1	5	116	6-Nov-14	2	Red	b	1	1.8029	D	B	D	B	b	r	1	2006	1	5	116	6-Nov-14	3	Red	l	1	0.2955	P	L	P	L	b	r	1	2006	1	5	116	6-Nov-14	4	Red	z	1	1.1045	M	Z	M	Z	b	r	1	2006	1	5	116	6-Nov-14	5	Red	f	1	0.7886	F	L	F	L	r	b	1	647	1	5	116	6-Nov-14	6	Red	t	1	0.2998	B	T	B	T	b	r	1	2006	1	5	116	6-Nov-14	7	Red	z	1	0.3321	F	Z	F	Z	b	r	1	2006	1	5	116	6-Nov-14	8	Red	j	1	0.5391	K	J	K	J	b	r	1	647	1	5	116	6-Nov-14	9	Red	r	1	0.5641	X	R	X	R	b	r	1	2006	1	5	116	6-Nov-14	10	Red	s	1	0.6506	I	S	I	S	b	r	1	647	1	5	116	6-Nov-14	11	Red	t	1	0.3194	T	F	T	F	r	b	1	2006	1	5	116	6-Nov-14	12	Red	p	1	0.7837	G	P	G	P	b	r	1	647	1	5	116	6-Nov-14	13	Red	f	1	0.8469	L	F	L	F	b	r	1	647	1	5	116	6-Nov-14	14	Red	i	1	0.9078	I	P	I	P	r	b	1	647	1	5	116	6-Nov-14	15	Red	n	1	0.4868	N	G	N	G	r	b	1	647	1	5	116	6-Nov-14	16	Red	b	1	0.4483	B	A	B	A	r	b	1	647	1	5	116	6-Nov-14	1	Blue	n	1	0.4864	N	E	ICAN	HKTE	rbrb	brbr	4	647	1	5	116	6-Nov-14	2	Blue	b	1	0.8998	B	V	ZUDB	SKPV	bbbb	rrrr	4	647	1	5	116	6-Nov-14	3	Blue	l	1	0.357	L	A	ESFL	UVYA	rrbb	bbrr	4	2006	1	5	116	6-Nov-14	4	Blue	q	1	0.6731	Q	Z	BKCQ	FPXZ	rbrb	brbr	4	2006	1	5	116	6-Nov-14	5	Blue	e	1	0.584	E	M	HLYE	DFGM	rrbb	bbrr	4	647	1	5	116	6-Nov-14	6	Blue	x	1	0.5322	H	X	STIH	FJQX	rrbr	bbrb	4	2006	1	5	116	6-Nov-14	7	Blue	e	1	0.5917	N	E	YQXN	STOE	brbr	rbrb	4	647	1	5	116	6-Nov-14	8	Blue	q	0	1.0969	W	F	EXMW	GKBF	brrb	rbbr	4	647	1	5	116	6-Nov-14	9	Blue	q	0	1.321	U	X	PDBU	WAHX	brbr	rbrb	4	647	1	5	116	6-Nov-14	10	Blue	f	1	0.5064	H	F	BIYH	RCXF	bbrr	rrbb	4	2006	1	5	116	6-Nov-14	11	Blue	r	1	0.7191	W	R	QBPW	SINR	brrr	rbbb	4	647	1	5	116	6-Nov-14	12	Blue	k	1	0.4144	B	K	AMCB	FLEK	rbbr	brrb	4	2006	1	5	116	6-Nov-14	13	Blue	y	1	0.4638	T	Y	EHWT	RZNY	rbrr	brbb	4	2006	1	5	116	6-Nov-14	14	Blue	e	1	0.408	E	V	HCGE	KUDV	brbb	rbrr	4	2006	1	5	116	6-Nov-14	15	Blue	w	1	0.6472	T	W	JPUT	FNGW	bbrr	rrbb	4	647	1	5	116	6-Nov-14	16	Blue	y	1	0.5292	J	Y	TVOJ	SIXY	rbrr	brbb	4	2006	1	5	116	6-Nov-14	1	Red	t	1	0.9061	S	T	JGNS	HAZT	rrrb	bbbr	4	647	1	5	116	6-Nov-14	2	Red	b	1	1.3361	E	B	GRAE	HXYB	bbrb	rrbr	4	647	1	5	116	6-Nov-14	3	Red	n	1	0.7542	C	N	TURC	FOPN	rbbb	brrr	4	2006	1	5	116	6-Nov-14	4	Red	z	1	0.8867	V	Z	UFSV	XNGZ	brrb	rbbr	4	647	1	5	116	6-Nov-14	5	Red	f	1	0.4962	D	F	WMKD	JXNF	rbrb	brbr	4	2006	1	5	116	6-Nov-14	6	Red	n	0	1.4692	K	E	BILK	ZPGE	bbbr	rrrb	4	647	1	5	116	6-Nov-14	7	Red	q	1	6.9591	C	Q	TSWC	ROBQ	rrrb	bbbr	4	647	1	5	116	6-Nov-14	8	Red	f	1	0.404	H	F	PRBH	NQAF	rbrb	brbr	4	2006	1	5	116	6-Nov-14	9	Red	u	1	0.4062	G	U	VHSG	WMNU	rrbb	bbrr	4	2006	1	5	116	6-Nov-14	10	Red	e	1	0.4563	Z	E	LGAZ	DCKE	brbb	rbrr	4	2006	1	5	116	6-Nov-14	11	Red	o	1	0.7666	O	K	GIEO	FTHK	bbrr	rrbb	4	647	1	5	116	6-Nov-14	12	Red	w	1	0.6121	G	W	LZEG	SBDW	bbrb	rrbr	4	2006	1	5	116	6-Nov-14	13	Red	g	1	0.855	G	Q	EMPG	VWXQ	rrbr	bbrb	4	2006	1	5	116	6-Nov-14	14	Red	d	1	1.1032	G	D	ICJG	VNKD	rbbb	brrr	4	647	1	5	116	6-Nov-14	15	Red	g	1	0.3287	G	J	WHCG	AXNJ	bbrr	rrbb	4	2006	1	5	116	6-Nov-14	16	Red	a	1	0.6428	A	N	POHA	GLRN	brrr	rbbb	4	647	1	5	116	6-Nov-14	1	Blue	d	1	0.5337	D	P	QWD	NAP	brb	rbr	3	647	1	5	116	6-Nov-14	2	Blue	n	1	0.5273	V	N	GRV	BXN	brr	rbb	3	647	1	5	116	6-Nov-14	3	Blue	r	0	2.2262	H	W	KNH	TMW	rrb	bbr	3	647	1	5	116	6-Nov-14	4	Blue	k	1	0.4895	K	I	ESK	BJI	rbb	brr	3	647	1	5	1