SubID	SessionDate	Trial	TargetColor	Response	Correct	RT	leftTargetLetter	rightTargetLetter	leftLetters	rightLetters	leftColors	rightColors	trainLength	TOA	Mask	SOA	centralized	centerLetters	centerTargetLetter	
17	05-May-2016	   1	Red	r	1	1.0782	99	99	RBLH	OWVD	9	9	1	650	1	2	1	RBLH	R	
17	05-May-2016	   2	Red	k	0	1.2147	99	99	FKAW	URXN	999	999	3	650	1	2	1	FKAW	A	
17	05-May-2016	   3	Red	h	1	1.7644	99	99	TIGH	WRSO	9999	9999	4	2000	1	2	1	TIGH	H	
17	05-May-2016	   4	Red	t	1	1.4087	99	99	TLQN	VHZC	9	9	1	650	1	2	1	TLQN	T	
17	05-May-2016	   5	Red	d	1	1.2607	99	99	CDGF	TZXS	99	99	2	650	1	2	1	CDGF	D	
17	05-May-2016	   6	Red	a	1	1.3153	99	99	AWXB	DMGE	9	9	1	650	1	2	1	AWXB	A	
17	05-May-2016	   7	Red	b	0	1.3221	99	99	VNKZ	GRLB	99	99	2	2000	1	2	1	VNKZ	N	
17	05-May-2016	   8	Red	a	1	1.6556	99	99	WAVY	XONU	99	99	2	650	1	2	1	WAVY	A	
17	05-May-2016	   9	Red	f	0	2.7873	99	99	MFVI	XSWQ	9999	9999	4	650	1	2	1	MFVI	I	
17	05-May-2016	  10	Red	e	1	1.2825	99	99	ZHRE	LQFN	9999	9999	4	2000	1	2	1	ZHRE	E	
17	05-May-2016	  11	Red	o	0	2.3867	99	99	WNQD	YORG	99	99	2	650	1	2	1	WNQD	N	
17	05-May-2016	  12	Red	y	0	2.7729	99	99	PXKT	FHJY	9999	9999	4	650	1	2	1	PXKT	T	
17	05-May-2016	  13	Red	b	0	3.7304	99	99	KGWV	SCDB	9999	9999	4	650	1	2	1	KGWV	V	
17	05-May-2016	  14	Red	z	0	1.4537	99	99	CZIU	TMBH	999	999	3	650	1	2	1	CZIU	I	
17	05-May-2016	  15	Red	a	1	1.6639	99	99	SVAX	ETMR	999	999	3	2000	1	2	1	SVAX	A	
17	05-May-2016	  16	Red	l	1	3.1386	99	99	LVHB	CTSE	9	9	1	2000	1	2	1	LVHB	L	
17	05-May-2016	  17	Red	z	1	3.5333	99	99	KQFZ	TPGN	9999	9999	4	2000	1	2	1	KQFZ	Z	
17	05-May-2016	  18	Red	y	1	1.7320	99	99	YWRJ	GMKB	9	9	1	2000	1	2	1	YWRJ	Y	
17	05-May-2016	  19	Red	k	1	1.2890	99	99	TXGK	YRJS	9999	9999	4	2000	1	2	1	TXGK	K	
17	05-May-2016	  20	Red	r	1	1.8052	99	99	RXQU	ZGNC	9	9	1	650	1	2	1	RXQU	R	
17	05-May-2016	  21	Red	p	0	3.4681	99	99	KOTN	VERB	99	99	2	2000	1	2	1	KOTN	O	
17	05-May-2016	  22	Red	c	0	1.7365	99	99	CIXP	NRBT	99	99	2	2000	1	2	1	CIXP	I	
17	05-May-2016	  23	Red	b	1	1.2333	99	99	JHBD	QENZ	999	999	3	2000	1	2	1	JHBD	B	
17	05-May-2016	  24	Red	o	1	1.6248	99	99	OXCQ	PYEB	9	9	1	2000	1	2	1	OXCQ	O	
17	05-May-2016	  25	Red	p	0	6.0475	99	99	AOUR	JNXD	999	999	3	2000	1	2	1	AOUR	U	
17	05-May-2016	  26	Red	w	0	2.1123	99	99	RVCK	WOMT	99	99	2	650	1	2	1	RVCK	V	
17	05-May-2016	  27	Red	b	0	1.2529	99	99	ABGF	EYDO	999	999	3	2000	1	2	1	ABGF	G	
17	05-May-2016	  28	Red	b	0	2.0374	99	99	HZUI	FJDS	9	9	1	2000	1	2	1	HZUI	H	
17	05-May-2016	  29	Red	p	0	2.9148	99	99	BMJL	RDWK	99	99	2	2000	1	2	1	BMJL	M	
17	05-May-2016	  30	Red	e	0	3.1848	99	99	ELIT	WXHV	999	999	3	650	1	2	1	ELIT	I	
17	05-May-2016	  31	Red	c	1	5.3196	99	99	FSCV	LNJH	999	999	3	650	1	2	1	FSCV	C	
17	05-May-2016	  32	Red	o	0	1.4432	99	99	QYBD	JNOH	9999	9999	4	650	1	2	1	QYBD	D	
17	05-May-2016	   1	Blue	r	0	1.8663	99	99	FIDJ	EZRC	99	99	2	2000	1	2	1	FIDJ	I	
17	05-May-2016	   2	Blue	s	0	2.2390	99	99	GCUJ	ILSZ	9999	9999	4	650	1	2	1	GCUJ	J	
17	05-May-2016	   3	Blue	w	0	1.1575	99	99	AHSE	NZWP	99	99	2	650	1	2	1	AHSE	H	
17	05-May-2016	   4	Blue	c	1	1.1282	99	99	CZMY	JVWD	9	9	1	2000	1	2	1	CZMY	C	
17	05-May-2016	   5	Blue	w	0	2.4451	99	99	WHBP	ROCZ	99	99	2	650	1	2	1	WHBP	H	
17	05-May-2016	   6	Blue	d	0	3.0776	99	99	TLBG	CUDF	999	999	3	650	1	2	1	TLBG	B	
17	05-May-2016	   7	Blue	k	0	6.1677	99	99	MQNR	COYK	999	999	3	650	1	2	1	MQNR	N	
17	05-May-2016	   8	Blue	r	0	1.9096	99	99	TNFL	XYPA	999	999	3	2000	1	2	1	TNFL	F	
17	05-May-2016	   9	Blue	o	0	1.8578	99	99	SMLD	NZEO	999	999	3	2000	1	2	1	SMLD	L	
17	05-May-2016	  10	Blue	m	1	1.2473	99	99	NMGW	SOPL	99	99	2	2000	1	2	1	NMGW	M	
17	05-May-2016	  11	Blue	n	0	4.9260	99	99	VKOX	HGED	9	9	1	650	1	2	1	VKOX	V	
17	05-May-2016	  12	Blue	n	1	2.1329	99	99	NOUM	HTKQ	9	9	1	650	1	2	1	NOUM	N	
17	05-May-2016	  13	Blue	q	1	1.4004	99	99	ZBQO	KVSE	999	999	3	2000	1	2	1	ZBQO	Q	
17	05-May-2016	  14	Blue	g	0	3.4489	99	99	HEAF	SCTJ	9999	9999	4	2000	1	2	1	HEAF	F	
17	05-May-2016	  15	Blue	o	0	2.1484	99	99	PERM	KZJO	999	999	3	650	1	2	1	PERM	R	
17	05-May-2016	  16	Blue	n	1	1.2569	99	99	UPNF	ECTV	999	999	3	2000	1	2	1	UPNF	N	
17	05-May-2016	  17	Blue	w	1	1.4203	99	99	YAKW	XCED	9999	9999	4	2000	1	2	1	YAKW	W	
17	05-May-2016	  18	Blue	s	1	4.6089	99	99	NDKS	WEGI	9999	9999	4	650	1	2	1	NDKS	S	
17	05-May-2016	  19	Blue	w	1	1.6751	99	99	WYPT	JLQS	9	9	1	650	1	2	1	WYPT	W	
17	05-May-2016	  20	Blue	n	0	5.5873	99	99	SWOJ	IZGN	99	99	2	650	1	2	1	SWOJ	W	
17	05-May-2016	  21	Blue	c	0	4.5648	99	99	LQYI	FDCE	9	9	1	2000	1	2	1	LQYI	L	
17	05-May-2016	  22	Blue	y	0	2.2736	99	99	KJZS	LXYM	999	999	3	650	1	2	1	KJZS	Z	
17	05-May-2016	  23	Blue	r	0	1.1941	99	99	NILE	DPRG	9999	9999	4	2000	1	2	1	NILE	E	
17	05-May-2016	  24	Blue	k	1	1.7893	99	99	ZKBM	JYRV	99	99	2	2000	1	2	1	ZKBM	K	
17	05-May-2016	  25	Blue	q	0	1.8621	99	99	FYGR	SJQL	9999	9999	4	650	1	2	1	FYGR	R	
17	05-May-2016	  26	Blue	y	1	3.3191	99	99	YFIT	NEZL	9	9	1	2000	1	2	1	YFIT	Y	
17	05-May-2016	  27	Blue	r	1	1.3260	99	99	RBHI	EXQD	9	9	1	650	1	2	1	RBHI	R	
17	05-May-2016	  28	Blue	z	1	6.8085	99	99	JRCZ	NVGU	9999	9999	4	2000	1	2	1	JRCZ	Z	
17	05-May-2016	  29	Blue	w	0	2.3111	99	99	CLXK	MJTW	9999	9999	4	650	1	2	1	CLXK	K	
17	05-May-2016	  30	Blue	n	0	6.9962	99	99	MSBE	GQKA	99	99	2	650	1	2	1	MSBE	S	
17	05-May-2016	  31	Blue	y	0	1.7243	99	99	UTVI	FQYE	99	99	2	2000	1	2	1	UTVI	T	
17	05-May-2016	  32	Blue	x	1	1.6431	99	99	XPIL	FCOT	9	9	1	2000	1	2	1	XPIL	X	
17	05-May-2016	   1	Red	r	0	2.1270	99	99	WMQJ	AOPC	99	99	2	2000	1	2	1	WMQJ	M	
17	05-May-2016	   2	Red	q	1	1.6007	99	99	PIQD	VGUO	999	999	3	650	1	2	1	PIQD	Q	
17	05-May-2016	   3	Red	w	0	2.0388	99	99	OHTL	DYUW	9999	9999	4	650	1	2	1	OHTL	L	
17	05-May-2016	   4	Red	k	1	1.4838	99	99	PKYJ	NUSR	99	99	2	650	1	2	1	PKYJ	K	
17	05-May-2016	   5	Red	k	0	5.9695	99	99	FPKD	MGUJ	9999	9999	4	2000	1	2	1	FPKD	D	
17	05-May-2016	   6	Red	u	1	2.7420	99	99	XURD	HVKB	99	99	2	2000	1	2	1	XURD	U	
17	05-May-2016	   7	Red	y	0	1.6608	99	99	SZVH	JLKA	999	999	3	2000	1	2	1	SZVH	V	
17	05-May-2016	   8	Red	x	1	1.5787	99	99	YSXQ	LRKA	999	999	3	2000	1	2	1	YSXQ	X	
17	05-May-2016	   9	Red	k	1	1.3322	99	99	KLOJ	WAGT	9	9	1	650	1	2	1	KLOJ	K	
17	05-May-2016	  10	Red	k	1	1.7772	99	99	KAPB	JHXL	9	9	1	2000	1	2	1	KAPB	K	
17	05-May-2016	  11	Red	s	1	6.1474	99	99	NJSH	TIDY	999	999	3	2000	1	2	1	NJSH	S	
17	05-May-2016	  12	Red	d	0	5.1442	99	99	OKAB	WJEM	99	99	2	650	1	2	1	OKAB	K	
17	05-May-2016	  13	Red	w	0	7.7935	99	99	LIOK	QZMW	999	999	3	650	1	2	1	LIOK	O	
17	05-May-2016	  14	Red	b	1	0.8878	99	99	PUXB	VDMJ	9999	9999	4	2000	1	2	1	PUXB	B	
17	05-May-2016	  15	Red	x	1	1.8448	99	99	XCNZ	MVFL	9	9	1	650	1	2	1	XCNZ	X	
17	05-May-2016	  16	Red	g	1	1.2306	99	99	GCID	HFKV	9	9	1	650	1	2	1	GCID	G	
17	05-May-2016	  17	Red	v	0	5.7545	99	99	UIZW	RXEQ	999	999	3	650	1	2	1	UIZW	Z	
17	05-May-2016	  18	Red	e	1	1.4267	99	99	ECAJ	NKGL	9	9	1	650	1	2	1	ECAJ	E	
17	05-May-2016	  19	Red	k	0	2.2871	99	99	QIOS	ZPLK	9999	9999	4	650	1	2	1	QIOS	S	
17	05-May-2016	  20	Red	q	1	1.5234	99	99	QIFT	AXLN	9	9	1	2000	1	2	1	QIFT	Q	
17	05-May-2016	  21	Red	z	1	1.4254	99	99	ZNJB	ASEL	9	9	1	2000	1	2	1	ZNJB	Z	
17	05-May-2016	  22	Red	d	1	4.9841	99	99	LVYD	ITXQ	9999	9999	4	2000	1	2	1	LVYD	D	
17	05-May-2016	  23	Red	w	1	1.9573	99	99	LWVS	GQJC	99	99	2	2000	1	2	1	LWVS	W	
17	05-May-2016	  24	Red	q	1	1.9435	99	99	BMQC	IFRJ	999	999	3	2000	1	2	1	BMQC	Q	
17	05-May-2016	  25	Red	a	0	10.3597	99	99	XKTJ	BOQA	99	99	2	650	1	2	1	XKTJ	K	
17	05-May-2016	  26	Red	k	0	7.0309	99	99	TJYH	QLIM	9999	9999	4	2000	1	2	1	TJYH	H	
17	05-May-2016	  27	Red	m	1	1.2537	99	99	KMOV	ABYZ	99	99	2	2000	1	2	1	KMOV	M	
17	05-May-2016	  28	Red	v	0	6.2952	99	99	PILA	DVSO	9999	9999	4	650	1	2	1	PILA	A	
17	05-May-2016	  29	Red	j	1	9.0964	99	99	NJUA	SXVB	99	99	2	650	1	2	1	NJUA	J	
17	05-May-2016	  30	Red	t	0	3.8870	99	99	GTOF	INRZ	999	999	3	650	1	2	1	GTOF	O	
17	05-May-2016	  31	Red	w	1	8.4295	99	99	ASQW	NMLE	9999	9999	4	650	1	2	1	ASQW	W	
17	05-May-2016	  32	Red	w	1	0.8742	99	99	WAVG	DFIK	9	9	1	2000	1	2	1	WAVG	W	
17	05-May-2016	   1	Blue	a	0	1.3992	99	99	GQTK	CEAU	9999	9999	4	2000	1	2	1	GQTK	K	
17	05-May-2016	   2	Blue	v	0	2.0589	99	99	EFLH	VROZ	999	999	3	650	1	2	1	EFLH	L	
17	05-May-2016	   3	Blue	m	1	1.3079	99	99	RLMF	GNUS	999	999	3	2000	1	2	1	RLMF	M	
17	05-May-2016	   4	Blue	b	0	2.1848	99	99	PVSD	COGB	99	99	2	650	1	2	1	PVSD	V	
17	05-May-2016	   5	Blue	b	0	4.3069	99	99	OUBP	AXDT	9999	9999	4	650	1	2	1	OUBP	P	
17	05-May-2016	   6	Blue	v	1	1.7514	99	99	VNDA	KHQG	9	9	1	650	1	2	1	VNDA	V	
17	05-May-2016	   7	Blue	b	0	8.5861	99	99	QMKI	LBEY	9999	9999	4	2000	1	2	1	QMKI	I	
17	05-May-2016	   8	Blue	p	0	6.4728	99	99	YLPK	RTXN	9	9	1	650	1	2	1	YLPK	Y	
17	05-May-2016	   9	Blue	j	1	5.1638	99	99	UJME	CZRA	99	99	2	2000	1	2	1	UJME	J	
17	05-May-2016	  10	Blue	x	1	0.9860	99	99	XFQY	MRNK	9	9	1	2000	1	2	1	XFQY	X	
17	05-May-2016	  11	Blue	h	1	1.1353	99	99	KPHU	ZMOE	999	999	3	2000	1	2	1	KPHU	H	
17	05-May-2016	  12	Blue	r	0	1.5809	99	99	XMCD	LEGR	999	999	3	650	1	2	1	XMCD	C	
17	05-May-2016	  13	Blue	f	1	1.6343	99	99	LFNK	VQUW	99	99	2	2000	1	2	1	LFNK	F	
17	05-May-2016	  14	Blue	f	1	1.0202	99	99	FCDN	AJMX	9	9	1	650	1	2	1	FCDN	F	
17	05-May-2016	  15	Blue	w	1	1.9837	99	99	TFNW	SIUK	9999	9999	4	650	1	2	1	TFNW	W	
17	05-May-2016	  16	Blue	i	0	7.8050	99	99	YCBJ	RZWL	9	9	1	2000	1	2	1	YCBJ	Y	
17	05-May-2016	  17	Blue	l	0	7.1874	99	99	NVBU	TCXQ	9999	9999	4	2000	1	2	1	NVBU	U	
17	05-May-2016	  18	Blue	m	0	9.1021	99	99	MZYR	GNHJ	999	999	3	650	1	2	1	MZYR	Y	
17	05-May-2016	  19	Blue	o	0	9.2681	99	99	PWHM	ONTX	99	99	2	650	1	2	1	PWHM	W	
17	05-May-2016	  20	Blue	w	0	5.3734	99	99	UPJY	ZGWD	999	999	3	650	1	2	1	UPJY	J	
17	05-May-2016	  21	Blue	u	1	1.2056	99	99	WUNC	KBRZ	99	99	2	2000	1	2	1	WUNC	U	
17	05-May-2016	  22	Blue	r	0	2.1940	99	99	PDXC	ZORU	9999	9999	4	650	1	2	1	PDXC	C	
17	05-May-2016	  23	Blue	w	0	16.9510	99	99	NAXE	ZILF	9999	9999	4	2000	1	2	1	NAXE	E	
17	05-May-2016	  24	Blue	a	0	1.8679	99	99	LGSN	MWIQ	9999	9999	4	650	1	2	1	LGSN	N	
17	05-May-2016	  25	Blue	p	0	3.1173	99	99	FKVY	SNLE	9	9	1	2000	1	2	1	FKVY	F	
17	05-May-2016	  26	Blue	b	0	1.4672	99	99	PSQY	NIRU	9	9	1	650	1	2	1	PSQY	P	
17	05-May-2016	  27	Blue	s	0	1.7979	99	99	MECH	FSIV	99	99	2	2000	1	2	1	MECH	E	
17	05-May-2016	  28	Blue	q	0	1.3813	99	99	XPWN	OHKC	999	999	3	2000	1	2	1	XPWN	W	
17	05-May-2016	  29	Blue	r	0	5.7053	99	99	KVLA	JOZF	9	9	1	2000	1	2	1	KVLA	K	
17	05-May-2016	  30	Blue	w	0	1.4458	99	99	KQFB	WUIX	99	99	2	650	1	2	1	KQFB	Q	
17	05-May-2016	  31	Blue	m	0	1.6823	99	99	QAOW	DHSI	999	999	3	2000	1	2	1	QAOW	O	
17	05-May-2016	  32	Blue	c	0	1.5885	99	99	HUGO	XWCI	99	99	2	650	1	2	1	HUGO	U	
17	05-May-2016	   1	Red	m	1	1.0550	M	P	GDMS	YCPW	brr	rbb	3	650	1	6	0	99	99	
17	05-May-2016	   2	Red	p	1	1.2367	D	P	DUWK	PRZY	b	r	1	650	1	6	0	99	99	
17	05-May-2016	   3	Red	z	1	1.1445	G	Z	CFGS	HKZW	bbb	rrr	3	2000	1	6	0	99	99	
17	05-May-2016	   4	Red	f	0	2.3553	G	I	GPEL	IHMQ	r	b	1	650	1	6	0	99	99	
17	05-May-2016	   5	Red	b	1	1.1005	F	B	WFXU	ABRN	rb	br	2	650	1	6	0	99	99	
17	05-May-2016	   6	Red	h	1	1.4517	H	M	KAHN	JLMU	rbr	brb	3	650	1	6	0	99	99	
17	05-May-2016	   7	Red	n	1	1.1440	S	N	EASD	HFNT	rbb	brr	3	2000	1	6	0	99	99	
17	05-May-2016	   8	Red	p	1	1.6022	P	O	PJYT	ONIQ	r	b	1	2000	1	6	0	99	99	
17	05-May-2016	   9	Red	f	1	1.6174	F	L	VNGF	KMHL	bbrr	rrbb	4	650	1	6	0	99	99	
17	05-May-2016	  10	Red	f	1	2.5250	F	H	DFJP	CHNQ	rr	bb	2	650	1	6	0	99	99	
17	05-May-2016	  11	Red	w	1	1.1068	W	I	QXYW	ZHBI	rbrr	brbb	4	650	1	6	0	99	99	
17	05-May-2016	  12	Red	u	1	0.9963	U	P	NVRU	HDLP	rbbr	brrb	4	2000	1	6	0	99	99	
17	05-May-2016	  13	Red	f	1	0.9191	F	E	KARF	JQYE	rrbr	bbrb	4	650	1	6	0	99	99	
17	05-May-2016	  14	Red	s	1	0.9408	H	S	CVQH	NWLS	rrrb	bbbr	4	650	1	6	0	99	99	
17	05-May-2016	  15	Red	j	1	1.2839	R	J	CDNR	SLTJ	bbbb	rrrr	4	2000	1	6	0	99	99	
17	05-May-2016	  16	Red	q	1	1.2567	Q	M	UBKQ	ITRM	brbr	rbrb	4	2000	1	6	0	99	99	
17	05-May-2016	  17	Red	x	1	1.6478	X	O	GXYF	LODS	br	rb	2	2000	1	6	0	99	99	
17	05-May-2016	  18	Red	a	1	1.2504	V	A	VOJU	AQGR	b	r	1	650	1	6	0	99	99	
17	05-May-2016	  19	Red	l	1	1.2171	G	L	GQST	LRCH	b	r	1	650	1	6	0	99	99	
17	05-May-2016	  20	Red	l	1	1.0522	U	L	KSUT	PJLH	brb	rbr	3	650	1	6	0	99	99	
17	05-May-2016	  21	Red	k	1	1.0116	K	U	YKJV	QUCE	br	rb	2	2000	1	6	0	99	99	
17	05-May-2016	  22	Red	x	1	1.5161	X	F	XRVQ	FASD	r	b	1	2000	1	6	0	99	99	
17	05-May-2016	  23	Red	z	1	1.4879	J	Z	SRDJ	LAOZ	rbbb	brrr	4	2000	1	6	0	99	99	
17	05-May-2016	  24	Red	m	1	2.0547	M	L	MJKG	LVCD	r	b	1	2000	1	6	0	99	99	
17	05-May-2016	  25	Red	k	1	1.8246	K	B	WKNZ	FBOV	br	rb	2	650	1	6	0	99	99	
17	05-May-2016	  26	Red	q	1	1.5723	Q	J	YQLP	FJND	br	rb	2	650	1	6	0	99	99	
17	05-May-2016	  27	Red	u	1	1.7616	U	B	PUMK	RBXH	rr	bb	2	2000	1	6	0	99	99	
17	05-May-2016	  28	Red	n	1	2.0674	P	N	QSPD	BFNW	brb	rbr	3	2000	1	6	0	99	99	
17	05-May-2016	  29	Red	k	1	1.7535	T	K	SBTF	XNKD	brb	rbr	3	2000	1	6	0	99	99	
17	05-May-2016	  30	Red	b	1	1.3201	B	C	ABFI	PCSV	rr	bb	2	2000	1	6	0	99	99	
17	05-May-2016	  31	Red	d	1	1.4686	M	D	MJVX	DLRG	b	r	1	2000	1	6	0	99	99	
17	05-May-2016	  32	Red	w	0	1.5429	A	L	QXAI	CKLT	rbr	brb	3	650	1	6	0	99	99	
17	05-May-2016	   1	Blue	w	1	1.4933	W	D	HGWC	IQDO	rbb	brr	3	2000	1	6	0	99	99	
17	05-May-2016	   2	Blue	z	1	1.6994	N	Z	NMLR	ZQEO	r	b	1	2000	1	6	0	99	99	
17	05-May-2016	   3	Blue	r	1	1.1351	I	R	FEKI	SYWR	rbrr	brbb	4	650	1	6	0	99	99	
17	05-May-2016	   4	Blue	e	1	1.2350	E	S	EBMW	SJHQ	b	r	1	650	1	6	0	99	99	
17	05-May-2016	   5	Blue	f	1	1.3810	I	F	HIAY	GFQV	br	rb	2	2000	1	6	0	99	99	
17	05-May-2016	   6	Blue	k	1	1.2486	D	K	BDML	AKRN	rr	bb	2	650	1	6	0	99	99	
17	05-May-2016	   7	Blue	h	1	0.9484	J	H	LTQJ	OKNH	rrbr	bbrb	4	2000	1	6	0	99	99	
17	05-May-2016	   8	Blue	b	1	1.1312	B	P	RAIB	UGJP	bbbb	rrrr	4	2000	1	6	0	99	99	
17	05-May-2016	   9	Blue	w	0	2.0029	I	T	EYMI	BPKT	bbbr	rrrb	4	650	1	6	0	99	99	
17	05-May-2016	  10	Blue	i	1	1.2887	X	I	MXQO	WIEC	rr	bb	2	650	1	6	0	99	99	
17	05-May-2016	  11	Blue	e	1	1.6145	E	O	QEIY	DOMB	bb	rr	2	2000	1	6	0	99	99	
17	05-May-2016	  12	Blue	p	1	1.2825	X	P	XIZQ	PACB	r	b	1	2000	1	6	0	99	99	
17	05-May-2016	  13	Blue	c	1	0.9178	U	C	ASRU	WJZC	brbr	rbrb	4	2000	1	6	0	99	99	
17	05-May-2016	  14	Blue	r	1	1.4676	R	P	JARV	DQPG	rbb	brr	3	2000	1	6	0	99	99	
17	05-May-2016	  15	Blue	k	1	1.7421	K	O	EKVD	FOIM	bb	rr	2	2000	1	6	0	99	99	
17	05-May-2016	  16	Blue	w	1	3.5404	Z	W	JZIL	VWDF	br	rb	2	650	1	6	0	99	99	
17	05-May-2016	  17	Blue	o	1	1.4913	F	O	FXPA	OTRW	r	b	1	650	1	6	0	99	99	
17	05-May-2016	  18	Blue	x	1	1.2994	T	X	QCTL	INXR	rbr	brb	3	650	1	6	0	99	99	
17	05-May-2016	  19	Blue	x	1	1.0914	U	X	CBUY	OJXG	rrr	bbb	3	650	1	6	0	99	99	
17	05-May-2016	  20	Blue	j	1	1.2021	J	U	ZHJW	NXUC	bbb	rrr	3	650	1	6	0	99	99	
17	05-May-2016	  21	Blue	b	1	1.4039	B	H	YBDM	XHSW	rb	br	2	650	1	6	0	99	99	
17	05-May-2016	  22	Blue	o	1	1.8251	B	O	JXPB	VHRO	bbrr	rrbb	4	650	1	6	0	99	99	
17	05-May-2016	  23	Blue	a	1	0.9704	A	R	WIZA	MOYR	rrrb	bbbr	4	2000	1	6	0	99	99	
17	05-May-2016	  24	Blue	z	1	1.4265	V	Z	VFEW	ZXTC	r	b	1	2000	1	6	0	99	99	
17	05-May-2016	  25	Blue	o	1	1.2059	O	Y	RMON	PHYX	rbb	brr	3	650	1	6	0	99	99	
17	05-May-2016	  26	Blue	i	1	1.2892	Y	I	MYEX	UINS	rr	bb	2	2000	1	6	0	99	99	
17	05-May-2016	  27	Blue	j	1	1.3693	J	M	HIJN	TPMA	brb	rbr	3	2000	1	6	0	99	99	
17	05-May-2016	  28	Blue	r	1	4.6796	P	R	QSPY	KTRM	rbr	brb	3	2000	1	6	0	99	99	
17	05-May-2016	  29	Blue	n	1	1.7111	N	Z	NYOW	ZLUS	b	r	1	650	1	6	0	99	99	
17	05-May-2016	  30	Blue	t	1	1.8787	S	T	SGRE	TMNW	r	b	1	2000	1	6	0	99	99	
17	05-May-2016	  31	Blue	k	1	4.4351	W	K	DPXW	ETFK	brbr	rbrb	4	650	1	6	0	99	99	
17	05-May-2016	  32	Blue	c	1	3.0275	C	H	CQYN	HZDA	b	r	1	650	1	6	0	99	99	
17	05-May-2016	   1	Red	a	1	1.0779	Q	A	NQUX	VAMZ	bb	rr	2	650	1	6	0	99	99	
17	05-May-2016	   2	Red	q	1	1.0742	Q	I	QKFG	IRWU	r	b	1	2000	1	6	0	99	99	
17	05-May-2016	   3	Red	b	1	1.0868	S	B	FPMS	THDB	bbbb	rrrr	4	2000	1	6	0	99	99	
17	05-May-2016	   4	Red	q	1	1.8354	F	Q	FPWS	QJLY	b	r	1	650	1	6	0	99	99	
17	05-May-2016	   5	Red	h	1	1.4147	H	F	HQDR	FVXA	r	b	1	2000	1	6	0	99	99	
17	05-May-2016	   6	Red	i	1	1.3512	I	C	ISUQ	CVLN	r	b	1	650	1	6	0	99	99	
17	05-May-2016	   7	Red	j	1	2.0480	L	J	GXYL	ZSFJ	rbrb	brbr	4	2000	1	6	0	99	99	
17	05-May-2016	   8	Red	b	1	1.1880	B	J	CBTU	PJFM	br	rb	2	650	1	6	0	99	99	
17	05-May-2016	   9	Red	g	1	7.9527	G	L	XSTG	VIML	brbr	rbrb	4	650	1	6	0	99	99	
17	05-May-2016	  10	Red	j	1	0.9766	J	H	PEJN	QZHS	brr	rbb	3	650	1	6	0	99	99	
17	05-May-2016	  11	Red	i	1	1.6034	W	I	YWOU	DIGF	bb	rr	2	2000	1	6	0	99	99	
17	05-May-2016	  12	Red	q	0	2.6938	O	X	EOMN	KXWB	rr	bb	2	2000	1	6	0	99	99	
17	05-May-2016	  13	Red	m	1	1.1352	M	V	YFML	HKVB	bbr	rrb	3	2000	1	6	0	99	99	
17	05-May-2016	  14	Red	f	1	2.4861	F	I	OQFX	YSIV	bbr	rrb	3	2000	1	6	0	99	99	
17	05-May-2016	  15	Red	s	0	9.7620	T	M	BTIJ	SMDK	bb	rr	2	650	1	6	0	99	99	
17	05-May-2016	  16	Red	t	1	1.1929	T	I	XKTQ	FWIY	bbr	rrb	3	650	1	6	0	99	99	
17	05-May-2016	  17	Red	o	1	1.7910	G	O	VRTG	NXMO	brbb	rbrr	4	650	1	6	0	99	99	
17	05-May-2016	  18	Red	s	1	2.0629	S	M	BCJS	PWZM	rbbr	brrb	4	650	1	6	0	99	99	
17	05-May-2016	  19	Red	y	1	1.5061	Y	L	NFYO	ZRLK	bbr	rrb	3	650	1	6	0	99	99	
17	05-May-2016	  20	Red	j	1	1.1161	J	P	YIJW	QVPU	bbr	rrb	3	650	1	6	0	99	99	
17	05-May-2016	  21	Red	s	1	0.3574	S	T	JLXS	YCMT	brbr	rbrb	4	2000	1	6	0	99	99	
17	05-May-2016	  22	Red	u	1	0.3925	U	T	YVNU	BQGT	brbr	rbrb	4	2000	1	6	0	99	99	
17	05-May-2016	  23	Red	j	1	1.3505	J	N	LJRV	CNUG	br	rb	2	650	1	6	0	99	99	
17	05-May-2016	  24	Red	i	1	1.7937	A	I	ASEF	IKLW	b	r	1	2000	1	6	0	99	99	
17	05-May-2016	  25	Red	w	1	0.9701	W	L	NPJW	DISL	brrr	rbbb	4	650	1	6	0	99	99	
17	05-May-2016	  26	Red	w	1	1.5650	M	W	BMOX	DWGV	rb	br	2	2000	1	6	0	99	99	
17	05-May-2016	  27	Red	b	0	7.1607	M	U	MKYV	UHIZ	r	b	1	2000	1	6	0	99	99	
17	05-May-2016	  28	Red	a	1	0.9943	G	A	GJLM	ANWI	b	r	1	650	1	6	0	99	99	
17	05-May-2016	  29	Red	e	1	1.8288	B	E	NKBX	IPEG	rrb	bbr	3	2000	1	6	0	99	99	
17	05-May-2016	  30	Red	w	1	1.1321	W	X	ASWJ	DEXO	brr	rbb	3	2000	1	6	0	99	99	
17	05-May-2016	  31	Red	n	1	1.5599	R	N	RFUS	NEPL	b	r	1	650	1	6	0	99	99	
17	05-May-2016	  32	Red	o	1	1.6203	O	G	WOIN	XGUP	rr	bb	2	2000	1	6	0	99	99	
17	05-May-2016	   1	Blue	c	1	0.9650	C	A	CRTN	ALXK	b	r	1	2000	1	6	0	99	99	
17	05-May-2016	   2	Blue	z	1	0.8877	Z	Y	XZCK	DYBR	rb	br	2	2000	1	6	0	99	99	
17	05-May-2016	   3	Blue	f	1	0.9419	Y	F	IYNT	DFRB	br	rb	2	650	1	6	0	99	99	
17	05-May-2016	   4	Blue	c	1	0.8568	X	C	BFXH	SZCR	rrr	bbb	3	650	1	6	0	99	99	
17	05-May-2016	   5	Blue	v	1	0.9831	G	V	PGWE	CVRY	rr	bb	2	2000	1	6	0	99	99	
17	05-May-2016	   6	Blue	v	1	1.7277	R	V	RZNC	VHDY	r	b	1	650	1	6	0	99	99	
17	05-May-2016	   7	Blue	e	1	0.9613	A	E	GFAZ	XHEY	rrr	bbb	3	650	1	6	0	99	99	
17	05-May-2016	   8	Blue	r	1	1.1609	R	H	RMQL	HJPU	b	r	1	650	1	6	0	99	99	
17	05-May-2016	   9	Blue	k	1	1.2677	K	L	KIZN	LEUP	b	r	1	2000	1	6	0	99	99	
17	05-May-2016	  10	Blue	e	1	0.9908	E	L	XZFE	WACL	brbb	rbrr	4	650	1	6	0	99	99	
17	05-May-2016	  11	Blue	l	1	1.2499	D	L	BFKD	GRSL	brbr	rbrb	4	650	1	6	0	99	99	
17	05-May-2016	  12	Blue	n	1	1.2492	Z	N	ZYLH	NGUW	r	b	1	2000	1	6	0	99	99	
17	05-May-2016	  13	Blue	f	1	0.4222	E	F	MTVE	YCZF	bbrr	rrbb	4	2000	1	6	0	99	99	
17	05-May-2016	  14	Blue	i	1	1.3033	I	O	CVGI	DMJO	bbbb	rrrr	4	2000	1	6	0	99	99	
17	05-May-2016	  15	Blue	s	1	1.0396	S	J	YZSN	BOJC	brb	rbr	3	2000	1	6	0	99	99	
17	05-May-2016	  16	Blue	b	1	0.8890	B	P	QZBX	RFPK	rrb	bbr	3	650	1	6	0	99	99	
17	05-May-2016	  17	Blue	a	1	0.9480	Q	A	MQLU	YACT	rr	bb	2	650	1	6	0	99	99	
17	05-May-2016	  18	Blue	f	1	1.0192	F	I	RDFT	SZIH	rrb	bbr	3	2000	1	6	0	99	99	
17	05-May-2016	  19	Blue	t	1	1.1952	T	Y	ITNJ	KYBG	bb	rr	2	650	1	6	0	99	99	
17	05-May-2016	  20	Blue	w	0	1.3257	I	A	XIJP	OAQY	bb	rr	2	2000	1	6	0	99	99	
17	05-May-2016	  21	Blue	q	0	1.5973	T	W	GOQT	UPIW	bbbr	rrrb	4	650	1	6	0	99	99	
17	05-May-2016	  22	Blue	k	1	0.5814	L	K	TCBL	XJSK	rrrr	bbbb	4	2000	1	6	0	99	99	
17	05-May-2016	  23	Blue	h	1	1.3451	X	H	REJX	BYAH	bbbr	rrrb	4	2000	1	6	0	99	99	
17	05-May-2016	  24	Blue	y	1	1.2531	Y	K	MYEW	RKDN	bb	rr	2	650	1	6	0	99	99	
17	05-May-2016	  25	Blue	e	1	1.0859	C	E	ZCWU	KEDT	rr	bb	2	2000	1	6	0	99	99	
17	05-May-2016	  26	Blue	p	1	1.3424	P	I	RONP	HLKI	brbb	rbrr	4	650	1	6	0	99	99	
17	05-May-2016	  27	Blue	q	1	1.5150	E	Q	EFOW	QCHA	r	b	1	650	1	6	0	99	99	
17	05-May-2016	  28	Blue	k	1	2.6763	K	Q	ZWKH	CSQV	rrb	bbr	3	2000	1	6	0	99	99	
17	05-May-2016	  29	Blue	x	1	0.9652	O	X	IHOB	FJXA	rrr	bbb	3	2000	1	6	0	99	99	
17	05-May-2016	  30	Blue	c	1	1.4220	C	N	CTPW	NLAX	b	r	1	650	1	6	0	99	99	
17	05-May-2016	  31	Blue	r	1	1.2948	R	I	RPVL	ITJO	b	r	1	2000	1	6	0	99	99	
17	05-May-2016	  32	Blue	b	1	0.8870	B	R	YMBE	TSRU	brb	rbr	3	650	1	6	0	99	99	
