SubID	SessionDate	Trial	TargetColor	Response	Response1	Response2	Correct	Correct1	Correct2	RT	RT1	RT2	leftTargetLetter	rightTargetLetter	leftLetters	rightLetters	leftColors	rightColors	trainLength	TOA	Mask	SOA	centralized	resp_all	centerLetters	centerTargetLetter	centerTargetLetter1	centerTargetLetter2	
1	19-May-2016	   1	Red	p	NaN	NaN	1	99	99	4.6784	99.0000	99.0000	99	99	PN	XY	9	9	1	650	1	3	1	0	PN	P	P	N	
1	19-May-2016	   2	Red	c	NaN	NaN	0	99	99	2.1178	99.0000	99.0000	99	99	UK	CE	9	9	1	850	1	3	1	0	UK	U	U	K	
1	19-May-2016	   3	Red	v	NaN	NaN	0	99	99	4.2889	99.0000	99.0000	99	99	VN	EQ	99	99	2	850	1	3	1	0	VN	N	V	N	
1	19-May-2016	   4	Red	n	NaN	NaN	1	99	99	4.6242	99.0000	99.0000	99	99	NQ	VX	9	9	1	1050	1	3	1	0	NQ	N	N	Q	
1	19-May-2016	   5	Red	a	NaN	NaN	1	99	99	0.8039	99.0000	99.0000	99	99	GA	XH	99	99	2	2000	1	3	1	0	GA	A	G	A	
1	19-May-2016	   6	Red	i	NaN	NaN	0	99	99	1.7712	99.0000	99.0000	99	99	QG	TF	9	9	1	650	1	3	1	0	QG	Q	Q	G	
1	19-May-2016	   7	Red	v	NaN	NaN	1	99	99	1.5114	99.0000	99.0000	99	99	VM	BY	9	9	1	2000	1	3	1	0	VM	V	V	M	
1	19-May-2016	   8	Red	f	NaN	NaN	1	99	99	0.8583	99.0000	99.0000	99	99	VF	MR	99	99	2	1050	1	3	1	0	VF	F	V	F	
1	19-May-2016	   9	Red	d	NaN	NaN	1	99	99	1.1992	99.0000	99.0000	99	99	DM	WH	9	9	1	2000	1	3	1	0	DM	D	D	M	
1	19-May-2016	  10	Red	e	NaN	NaN	1	99	99	1.5523	99.0000	99.0000	99	99	EK	FO	9	9	1	650	1	3	1	0	EK	E	E	K	
1	19-May-2016	  11	Red	w	NaN	NaN	1	99	99	1.3685	99.0000	99.0000	99	99	WM	IH	9	9	1	1050	1	3	1	0	WM	W	W	M	
1	19-May-2016	  12	Red	y	NaN	NaN	0	99	99	1.3155	99.0000	99.0000	99	99	VK	MT	99	99	2	650	1	3	1	0	VK	K	V	K	
1	19-May-2016	  13	Red	s	NaN	NaN	1	99	99	1.1622	99.0000	99.0000	99	99	SC	BF	9	9	1	1050	1	3	1	0	SC	S	S	C	
1	19-May-2016	  14	Red	o	NaN	NaN	1	99	99	1.1017	99.0000	99.0000	99	99	OZ	RX	9	9	1	2000	1	3	1	0	OZ	O	O	Z	
1	19-May-2016	  15	Red	y	NaN	NaN	1	99	99	1.1239	99.0000	99.0000	99	99	YQ	UK	9	9	1	850	1	3	1	0	YQ	Y	Y	Q	
1	19-May-2016	  16	Red	u	NaN	NaN	1	99	99	0.9510	99.0000	99.0000	99	99	UC	YE	9	9	1	850	1	3	1	0	UC	U	U	C	
1	19-May-2016	  17	Red	j	NaN	NaN	1	99	99	1.2652	99.0000	99.0000	99	99	JR	GY	9	9	1	650	1	3	1	0	JR	J	J	R	
1	19-May-2016	  18	Red	a	NaN	NaN	1	99	99	0.9780	99.0000	99.0000	99	99	UA	SQ	99	99	2	2000	1	3	1	0	UA	A	U	A	
1	19-May-2016	  19	Red	w	NaN	NaN	1	99	99	1.0826	99.0000	99.0000	99	99	WZ	NS	9	9	1	850	1	3	1	0	WZ	W	W	Z	
1	19-May-2016	  20	Red	j	NaN	NaN	1	99	99	0.8196	99.0000	99.0000	99	99	FJ	SE	99	99	2	850	1	3	1	0	FJ	J	F	J	
1	19-May-2016	  21	Red	n	NaN	NaN	1	99	99	1.0595	99.0000	99.0000	99	99	MN	QO	99	99	2	2000	1	3	1	0	MN	N	M	N	
1	19-May-2016	  22	Red	x	NaN	NaN	1	99	99	1.1636	99.0000	99.0000	99	99	XI	WV	9	9	1	2000	1	3	1	0	XI	X	X	I	
1	19-May-2016	  23	Red	k	NaN	NaN	1	99	99	0.9376	99.0000	99.0000	99	99	UK	YX	99	99	2	1050	1	3	1	0	UK	K	U	K	
1	19-May-2016	  24	Red	t	NaN	NaN	1	99	99	1.1276	99.0000	99.0000	99	99	BT	WR	99	99	2	850	1	3	1	0	BT	T	B	T	
1	19-May-2016	  25	Red	s	NaN	NaN	1	99	99	1.1253	99.0000	99.0000	99	99	SE	QW	9	9	1	1050	1	3	1	0	SE	S	S	E	
1	19-May-2016	  26	Red	a	NaN	NaN	1	99	99	1.0331	99.0000	99.0000	99	99	NA	MS	99	99	2	650	1	3	1	0	NA	A	N	A	
1	19-May-2016	  27	Red	l	NaN	NaN	1	99	99	1.0023	99.0000	99.0000	99	99	VL	AT	99	99	2	2000	1	3	1	0	VL	L	V	L	
1	19-May-2016	  28	Red	n	NaN	NaN	0	99	99	0.7327	99.0000	99.0000	99	99	QU	XR	99	99	2	650	1	3	1	0	QU	U	Q	U	
1	19-May-2016	  29	Red	l	NaN	NaN	1	99	99	0.8657	99.0000	99.0000	99	99	PL	VW	99	99	2	1050	1	3	1	0	PL	L	P	L	
1	19-May-2016	  30	Red	b	NaN	NaN	1	99	99	0.6773	99.0000	99.0000	99	99	ZB	XJ	99	99	2	1050	1	3	1	0	ZB	B	Z	B	
1	19-May-2016	  31	Red	h	NaN	NaN	0	99	99	1.0678	99.0000	99.0000	99	99	SI	GU	99	99	2	850	1	3	1	0	SI	I	S	I	
1	19-May-2016	  32	Red	s	NaN	NaN	1	99	99	1.0746	99.0000	99.0000	99	99	GS	FX	99	99	2	650	1	3	1	0	GS	S	G	S	
1	19-May-2016	   1	Blue	t	NaN	NaN	1	99	99	1.1764	99.0000	99.0000	99	99	UT	KJ	99	99	2	2000	1	3	1	0	UT	T	U	T	
1	19-May-2016	   2	Blue	d	NaN	NaN	1	99	99	4.2344	99.0000	99.0000	99	99	DT	IM	9	9	1	2000	1	3	1	0	DT	D	D	T	
1	19-May-2016	   3	Blue	w	NaN	NaN	0	99	99	0.9218	99.0000	99.0000	99	99	HK	OT	99	99	2	650	1	3	1	0	HK	K	H	K	
1	19-May-2016	   4	Blue	t	NaN	NaN	1	99	99	0.7758	99.0000	99.0000	99	99	VT	XK	99	99	2	850	1	3	1	0	VT	T	V	T	
1	19-May-2016	   5	Blue	h	NaN	NaN	1	99	99	1.0409	99.0000	99.0000	99	99	HR	TA	9	9	1	1050	1	3	1	0	HR	H	H	R	
1	19-May-2016	   6	Blue	c	NaN	NaN	1	99	99	1.1281	99.0000	99.0000	99	99	CW	LG	9	9	1	850	1	3	1	0	CW	C	C	W	
1	19-May-2016	   7	Blue	n	NaN	NaN	1	99	99	0.9722	99.0000	99.0000	99	99	MN	TI	99	99	2	650	1	3	1	0	MN	N	M	N	
1	19-May-2016	   8	Blue	g	NaN	NaN	1	99	99	0.9908	99.0000	99.0000	99	99	GW	UL	9	9	1	850	1	3	1	0	GW	G	G	W	
1	19-May-2016	   9	Blue	n	NaN	NaN	0	99	99	0.8557	99.0000	99.0000	99	99	MH	PB	99	99	2	650	1	3	1	0	MH	H	M	H	
1	19-May-2016	  10	Blue	b	NaN	NaN	1	99	99	0.5895	99.0000	99.0000	99	99	BR	VP	9	9	1	2000	1	3	1	0	BR	B	B	R	
1	19-May-2016	  11	Blue	z	NaN	NaN	1	99	99	0.8426	99.0000	99.0000	99	99	ZL	FH	9	9	1	2000	1	3	1	0	ZL	Z	Z	L	
1	19-May-2016	  12	Blue	h	NaN	NaN	1	99	99	1.0399	99.0000	99.0000	99	99	HD	VL	9	9	1	650	1	3	1	0	HD	H	H	D	
1	19-May-2016	  13	Blue	y	NaN	NaN	1	99	99	1.1272	99.0000	99.0000	99	99	YK	GU	9	9	1	850	1	3	1	0	YK	Y	Y	K	
1	19-May-2016	  14	Blue	p	NaN	NaN	1	99	99	0.9860	99.0000	99.0000	99	99	PN	FM	9	9	1	650	1	3	1	0	PN	P	P	N	
1	19-May-2016	  15	Blue	o	NaN	NaN	1	99	99	0.8215	99.0000	99.0000	99	99	OW	MN	9	9	1	1050	1	3	1	0	OW	O	O	W	
1	19-May-2016	  16	Blue	o	NaN	NaN	1	99	99	0.9059	99.0000	99.0000	99	99	OY	SC	9	9	1	650	1	3	1	0	OY	O	O	Y	
1	19-May-2016	  17	Blue	b	NaN	NaN	0	99	99	1.2752	99.0000	99.0000	99	99	HM	JB	99	99	2	1050	1	3	1	0	HM	M	H	M	
1	19-May-2016	  18	Blue	l	NaN	NaN	1	99	99	0.9453	99.0000	99.0000	99	99	LN	QB	9	9	1	2000	1	3	1	0	LN	L	L	N	
1	19-May-2016	  19	Blue	g	NaN	NaN	1	99	99	0.9252	99.0000	99.0000	99	99	GQ	SU	9	9	1	1050	1	3	1	0	GQ	G	G	Q	
1	19-May-2016	  20	Blue	r	NaN	NaN	1	99	99	1.4499	99.0000	99.0000	99	99	RT	KX	9	9	1	1050	1	3	1	0	RT	R	R	T	
1	19-May-2016	  21	Blue	x	NaN	NaN	1	99	99	0.7484	99.0000	99.0000	99	99	MX	SH	99	99	2	2000	1	3	1	0	MX	X	M	X	
1	19-May-2016	  22	Blue	u	NaN	NaN	1	99	99	1.0460	99.0000	99.0000	99	99	UH	LF	9	9	1	650	1	3	1	0	UH	U	U	H	
1	19-May-2016	  23	Blue	e	NaN	NaN	1	99	99	1.2805	99.0000	99.0000	99	99	JE	DH	99	99	2	1050	1	3	1	0	JE	E	J	E	
1	19-May-2016	  24	Blue	t	NaN	NaN	1	99	99	1.2034	99.0000	99.0000	99	99	IT	SA	99	99	2	1050	1	3	1	0	IT	T	I	T	
1	19-May-2016	  25	Blue	w	NaN	NaN	0	99	99	0.9511	99.0000	99.0000	99	99	BH	FP	99	99	2	2000	1	3	1	0	BH	H	B	H	
1	19-May-2016	  26	Blue	m	NaN	NaN	0	99	99	1.4658	99.0000	99.0000	99	99	PX	HI	99	99	2	650	1	3	1	0	PX	X	P	X	
1	19-May-2016	  27	Blue	p	NaN	NaN	1	99	99	0.5483	99.0000	99.0000	99	99	KP	AI	99	99	2	2000	1	3	1	0	KP	P	K	P	
1	19-May-2016	  28	Blue	s	NaN	NaN	1	99	99	1.5439	99.0000	99.0000	99	99	JS	KC	99	99	2	850	1	3	1	0	JS	S	J	S	
1	19-May-2016	  29	Blue	q	NaN	NaN	1	99	99	0.8814	99.0000	99.0000	99	99	GQ	NP	99	99	2	1050	1	3	1	0	GQ	Q	G	Q	
1	19-May-2016	  30	Blue	y	NaN	NaN	1	99	99	0.8082	99.0000	99.0000	99	99	IY	SN	99	99	2	850	1	3	1	0	IY	Y	I	Y	
1	19-May-2016	  31	Blue	u	NaN	NaN	1	99	99	1.0408	99.0000	99.0000	99	99	UV	DS	9	9	1	850	1	3	1	0	UV	U	U	V	
1	19-May-2016	  32	Blue	x	NaN	NaN	1	99	99	0.9626	99.0000	99.0000	99	99	BX	NZ	99	99	2	850	1	3	1	0	BX	X	B	X	
1	19-May-2016	   1	Red	x	NaN	NaN	1	99	99	0.6330	99.0000	99.0000	99	99	XH	OU	9	9	1	1050	1	3	1	0	XH	X	X	H	
1	19-May-2016	   2	Red	c	NaN	NaN	1	99	99	1.1104	99.0000	99.0000	99	99	CZ	IQ	9	9	1	850	1	3	1	0	CZ	C	C	Z	
1	19-May-2016	   3	Red	m	NaN	NaN	1	99	99	4.5400	99.0000	99.0000	99	99	MD	UL	9	9	1	850	1	3	1	0	MD	M	M	D	
1	19-May-2016	   4	Red	g	NaN	NaN	1	99	99	0.9773	99.0000	99.0000	99	99	AG	DH	99	99	2	2000	1	3	1	0	AG	G	A	G	
1	19-May-2016	   5	Red	k	NaN	NaN	1	99	99	0.9845	99.0000	99.0000	99	99	BK	AY	99	99	2	1050	1	3	1	0	BK	K	B	K	
1	19-May-2016	   6	Red	u	NaN	NaN	1	99	99	1.0565	99.0000	99.0000	99	99	UC	NA	9	9	1	2000	1	3	1	0	UC	U	U	C	
1	19-May-2016	   7	Red	z	NaN	NaN	0	99	99	1.1908	99.0000	99.0000	99	99	NV	AL	99	99	2	650	1	3	1	0	NV	V	N	V	
1	19-May-2016	   8	Red	y	NaN	NaN	1	99	99	1.1375	99.0000	99.0000	99	99	YE	GT	9	9	1	2000	1	3	1	0	YE	Y	Y	E	
1	19-May-2016	   9	Red	o	NaN	NaN	0	99	99	1.8286	99.0000	99.0000	99	99	FH	KU	99	99	2	650	1	3	1	0	FH	H	F	H	
1	19-May-2016	  10	Red	h	NaN	NaN	1	99	99	1.1201	99.0000	99.0000	99	99	HB	AM	9	9	1	650	1	3	1	0	HB	H	H	B	
1	19-May-2016	  11	Red	q	NaN	NaN	1	99	99	1.0605	99.0000	99.0000	99	99	QH	VD	9	9	1	1050	1	3	1	0	QH	Q	Q	H	
1	19-May-2016	  12	Red	p	NaN	NaN	1	99	99	0.8709	99.0000	99.0000	99	99	MP	CA	99	99	2	850	1	3	1	0	MP	P	M	P	
1	19-May-2016	  13	Red	k	NaN	NaN	1	99	99	1.2209	99.0000	99.0000	99	99	SK	ZA	99	99	2	2000	1	3	1	0	SK	K	S	K	
1	19-May-2016	  14	Red	j	NaN	NaN	1	99	99	1.1575	99.0000	99.0000	99	99	JX	PC	9	9	1	850	1	3	1	0	JX	J	J	X	
1	19-May-2016	  15	Red	d	NaN	NaN	1	99	99	1.4194	99.0000	99.0000	99	99	ZD	BQ	99	99	2	850	1	3	1	0	ZD	D	Z	D	
1	19-May-2016	  16	Red	u	NaN	NaN	1	99	99	0.9106	99.0000	99.0000	99	99	BU	QE	99	99	2	2000	1	3	1	0	BU	U	B	U	
1	19-May-2016	  17	Red	r	NaN	NaN	0	99	99	0.9471	99.0000	99.0000	99	99	VP	DK	99	99	2	2000	1	3	1	0	VP	P	V	P	
1	19-May-2016	  18	Red	j	NaN	NaN	1	99	99	0.7701	99.0000	99.0000	99	99	NJ	GQ	99	99	2	1050	1	3	1	0	NJ	J	N	J	
1	19-May-2016	  19	Red	f	NaN	NaN	1	99	99	0.6974	99.0000	99.0000	99	99	LF	TU	99	99	2	1050	1	3	1	0	LF	F	L	F	
1	19-May-2016	  20	Red	g	NaN	NaN	0	99	99	1.4212	99.0000	99.0000	99	99	KX	ZE	99	99	2	650	1	3	1	0	KX	X	K	X	
1	19-May-2016	  21	Red	c	NaN	NaN	1	99	99	1.5028	99.0000	99.0000	99	99	CD	PJ	9	9	1	1050	1	3	1	0	CD	C	C	D	
1	19-May-2016	  22	Red	g	NaN	NaN	0	99	99	1.5609	99.0000	99.0000	99	99	DJ	UC	99	99	2	850	1	3	1	0	DJ	J	D	J	
1	19-May-2016	  23	Red	z	NaN	NaN	1	99	99	1.2611	99.0000	99.0000	99	99	ZJ	KV	9	9	1	650	1	3	1	0	ZJ	Z	Z	J	
1	19-May-2016	  24	Red	p	NaN	NaN	1	99	99	0.8400	99.0000	99.0000	99	99	RP	MD	99	99	2	850	1	3	1	0	RP	P	R	P	
1	19-May-2016	  25	Red	v	NaN	NaN	1	99	99	0.9694	99.0000	99.0000	99	99	LV	IN	99	99	2	1050	1	3	1	0	LV	V	L	V	
1	19-May-2016	  26	Red	d	NaN	NaN	1	99	99	1.1569	99.0000	99.0000	99	99	DX	ZB	9	9	1	1050	1	3	1	0	DX	D	D	X	
1	19-May-2016	  27	Red	m	NaN	NaN	1	99	99	0.9902	99.0000	99.0000	99	99	MF	DB	9	9	1	650	1	3	1	0	MF	M	M	F	
1	19-May-2016	  28	Red	i	NaN	NaN	1	99	99	0.7435	99.0000	99.0000	99	99	IH	KA	9	9	1	2000	1	3	1	0	IH	I	I	H	
1	19-May-2016	  29	Red	f	NaN	NaN	1	99	99	0.9038	99.0000	99.0000	99	99	FA	YQ	9	9	1	2000	1	3	1	0	FA	F	F	A	
1	19-May-2016	  30	Red	o	NaN	NaN	0	99	99	2.2612	99.0000	99.0000	99	99	VP	ZL	9	9	1	850	1	3	1	0	VP	V	V	P	
1	19-May-2016	  31	Red	z	NaN	NaN	0	99	99	2.1531	99.0000	99.0000	99	99	EH	XS	99	99	2	650	1	3	1	0	EH	H	E	H	
1	19-May-2016	  32	Red	g	NaN	NaN	1	99	99	1.1621	99.0000	99.0000	99	99	GQ	ZU	9	9	1	650	1	3	1	0	GQ	G	G	Q	
1	19-May-2016	   1	Blue	x	NaN	NaN	1	99	99	0.5994	99.0000	99.0000	99	99	XL	SH	9	9	1	650	1	3	1	0	XL	X	X	L	
1	19-May-2016	   2	Blue	r	NaN	NaN	1	99	99	0.8619	99.0000	99.0000	99	99	RD	KY	9	9	1	2000	1	3	1	0	RD	R	R	D	
1	19-May-2016	   3	Blue	h	NaN	NaN	1	99	99	0.9005	99.0000	99.0000	99	99	HT	EX	9	9	1	850	1	3	1	0	HT	H	H	T	
1	19-May-2016	   4	Blue	o	NaN	NaN	0	99	99	0.5856	99.0000	99.0000	99	99	OX	IS	99	99	2	650	1	3	1	0	OX	X	O	X	
1	19-May-2016	   5	Blue	d	NaN	NaN	1	99	99	0.9537	99.0000	99.0000	99	99	DW	YU	9	9	1	1050	1	3	1	0	DW	D	D	W	
1	19-May-2016	   6	Blue	x	NaN	NaN	1	99	99	0.9090	99.0000	99.0000	99	99	MX	LO	99	99	2	2000	1	3	1	0	MX	X	M	X	
1	19-May-2016	   7	Blue	a	NaN	NaN	1	99	99	5.8870	99.0000	99.0000	99	99	AS	YH	9	9	1	650	1	3	1	0	AS	A	A	S	
1	19-May-2016	   8	Blue	m	NaN	NaN	1	99	99	0.9729	99.0000	99.0000	99	99	MY	GA	9	9	1	650	1	3	1	0	MY	M	M	Y	
1	19-May-2016	   9	Blue	f	NaN	NaN	1	99	99	0.4637	99.0000	99.0000	99	99	ZF	QS	99	99	2	2000	1	3	1	0	ZF	F	Z	F	
1	19-May-2016	  10	Blue	s	NaN	NaN	1	99	99	0.8689	99.0000	99.0000	99	99	TS	CP	99	99	2	850	1	3	1	0	TS	S	T	S	
1	19-May-2016	  11	Blue	j	NaN	NaN	1	99	99	1.0440	99.0000	99.0000	99	99	JC	UO	9	9	1	1050	1	3	1	0	JC	J	J	C	
1	19-May-2016	  12	Blue	k	NaN	NaN	1	99	99	0.9256	99.0000	99.0000	99	99	AK	OQ	99	99	2	850	1	3	1	0	AK	K	A	K	
1	19-May-2016	  13	Blue	z	NaN	NaN	1	99	99	1.4019	99.0000	99.0000	99	99	ZM	TE	9	9	1	850	1	3	1	0	ZM	Z	Z	M	
1	19-May-2016	  14	Blue	t	NaN	NaN	1	99	99	0.3976	99.0000	99.0000	99	99	RT	GC	99	99	2	2000	1	3	1	0	RT	T	R	T	
1	19-May-2016	  15	Blue	r	NaN	NaN	0	99	99	1.2508	99.0000	99.0000	99	99	YJ	VR	99	99	2	650	1	3	1	0	YJ	J	Y	J	
1	19-May-2016	  16	Blue	f	NaN	NaN	1	99	99	0.9172	99.0000	99.0000	99	99	XF	DS	99	99	2	2000	1	3	1	0	XF	F	X	F	
1	19-May-2016	  17	Blue	e	NaN	NaN	1	99	99	1.1597	99.0000	99.0000	99	99	ES	XY	9	9	1	850	1	3	1	0	ES	E	E	S	
1	19-May-2016	  18	Blue	q	NaN	NaN	0	99	99	0.9326	99.0000	99.0000	99	99	IU	OX	99	99	2	650	1	3	1	0	IU	U	I	U	
1	19-May-2016	  19	Blue	b	NaN	NaN	1	99	99	0.8761	99.0000	99.0000	99	99	QB	DP	99	99	2	1050	1	3	1	0	QB	B	Q	B	
1	19-May-2016	  20	Blue	n	NaN	NaN	1	99	99	0.9033	99.0000	99.0000	99	99	NZ	SA	9	9	1	2000	1	3	1	0	NZ	N	N	Z	
1	19-May-2016	  21	Blue	n	NaN	NaN	0	99	99	0.3719	99.0000	99.0000	99	99	LJ	ZU	9	9	1	2000	1	3	1	0	LJ	L	L	J	
1	19-May-2016	  22	Blue	u	NaN	NaN	1	99	99	0.7196	99.0000	99.0000	99	99	CU	AT	99	99	2	1050	1	3	1	0	CU	U	C	U	
1	19-May-2016	  23	Blue	e	NaN	NaN	1	99	99	1.4012	99.0000	99.0000	99	99	EK	PU	9	9	1	2000	1	3	1	0	EK	E	E	K	
1	19-May-2016	  24	Blue	r	NaN	NaN	1	99	99	1.0599	99.0000	99.0000	99	99	RJ	LA	9	9	1	850	1	3	1	0	RJ	R	R	J	
1	19-May-2016	  25	Blue	q	NaN	NaN	0	99	99	2.3298	99.0000	99.0000	99	99	DU	GH	9	9	1	650	1	3	1	0	DU	D	D	U	
1	19-May-2016	  26	Blue	i	NaN	NaN	1	99	99	0.9004	99.0000	99.0000	99	99	OI	ZJ	99	99	2	650	1	3	1	0	OI	I	O	I	
1	19-May-2016	  27	Blue	n	NaN	NaN	1	99	99	0.9894	99.0000	99.0000	99	99	FN	EP	99	99	2	1050	1	3	1	0	FN	N	F	N	
1	19-May-2016	  28	Blue	c	NaN	NaN	1	99	99	1.1514	99.0000	99.0000	99	99	CR	AU	9	9	1	1050	1	3	1	0	CR	C	C	R	
1	19-May-2016	  29	Blue	b	NaN	NaN	1	99	99	0.8133	99.0000	99.0000	99	99	BL	ZK	9	9	1	1050	1	3	1	0	BL	B	B	L	
1	19-May-2016	  30	Blue	s	NaN	NaN	1	99	99	0.9506	99.0000	99.0000	99	99	JS	LX	99	99	2	850	1	3	1	0	JS	S	J	S	
1	19-May-2016	  31	Blue	i	NaN	NaN	1	99	99	0.9077	99.0000	99.0000	99	99	NI	UO	99	99	2	850	1	3	1	0	NI	I	N	I	
1	19-May-2016	  32	Blue	f	NaN	NaN	1	99	99	0.3800	99.0000	99.0000	99	99	RF	CB	99	99	2	1050	1	3	1	0	RF	F	R	F	
1	19-May-2016	   1	Red	NaN	b	.	99	1	99	99.0000	0.9292	99.0000	99	99	BX	PY	9	9	1	2000	1	3	1	1	BX	B	B	X	
1	19-May-2016	   2	Red	NaN	p	s	99	1	1	99.0000	0.3833	0.8618	99	99	PS	LB	99	99	2	2000	1	3	1	1	PS	S	P	S	
1	19-May-2016	   3	Red	NaN	i	d	99	1	1	99.0000	0.7581	1.1898	99	99	ID	OW	99	99	2	650	1	3	1	1	ID	D	I	D	
1	19-May-2016	   4	Red	NaN	b	.	99	1	99	99.0000	1.0001	99.0000	99	99	BX	HW	9	9	1	2000	1	3	1	1	BX	B	B	X	
1	19-May-2016	   5	Red	NaN	t	.	99	1	99	99.0000	1.4233	99.0000	99	99	TU	MS	9	9	1	650	1	3	1	1	TU	T	T	U	
1	19-May-2016	   6	Red	NaN	u	.	99	1	99	99.0000	0.8330	99.0000	99	99	UO	VX	9	9	1	2000	1	3	1	1	UO	U	U	O	
1	19-May-2016	   7	Red	NaN	z	j	99	1	1	99.0000	0.9561	1.2600	99	99	ZJ	PT	99	99	2	1050	1	3	1	1	ZJ	J	Z	J	
1	19-May-2016	   8	Red	NaN	h	.	99	1	99	99.0000	0.9487	99.0000	99	99	HQ	CP	9	9	1	850	1	3	1	1	HQ	H	H	Q	
1	19-May-2016	   9	Red	NaN	z	f	99	1	1	99.0000	0.8966	1.0483	99	99	ZF	OA	99	99	2	650	1	3	1	1	ZF	F	Z	F	
1	19-May-2016	  10	Red	NaN	e	k	99	1	1	99.0000	0.9328	1.1889	99	99	EK	CH	99	99	2	1050	1	3	1	1	EK	K	E	K	
1	19-May-2016	  11	Red	NaN	b	.	99	1	99	99.0000	0.9353	99.0000	99	99	BA	JL	9	9	1	650	1	3	1	1	BA	B	B	A	
1	19-May-2016	  12	Red	NaN	x	r	99	1	0	99.0000	0.9937	1.0823	99	99	XM	FT	99	99	2	650	1	3	1	1	XM	M	X	M	
1	19-May-2016	  13	Red	NaN	s	.	99	1	99	99.0000	1.0562	99.0000	99	99	SC	GR	9	9	1	2000	1	3	1	1	SC	S	S	C	
1	19-May-2016	  14	Red	NaN	v	.	99	1	99	99.0000	1.0163	99.0000	99	99	VE	QJ	9	9	1	1050	1	3	1	1	VE	V	V	E	
1	19-May-2016	  15	Red	NaN	n	n	99	0	1	99.0000	1.3813	4.3978	99	99	EN	OX	99	99	2	1050	1	3	1	1	EN	N	E	N	
1	19-May-2016	  16	Red	NaN	n	.	99	0	99	99.0000	0.9129	99.0000	99	99	VZ	KN	9	9	1	1050	1	3	1	1	VZ	V	V	Z	
1	19-May-2016	  17	Red	NaN	a	v	99	1	1	99.0000	0.7660	1.0779	99	99	AV	PW	99	99	2	650	1	3	1	1	AV	V	A	V	
1	19-May-2016	  18	Red	NaN	f	.	99	1	99	99.0000	0.9111	99.0000	99	99	FA	OY	9	9	1	1050	1	3	1	1	FA	F	F	A	
1	19-May-2016	  19	Red	NaN	r	.	99	1	99	99.0000	0.9060	99.0000	99	99	RS	AP	9	9	1	650	1	3	1	1	RS	R	R	S	
1	19-May-2016	  20	Red	NaN	x	s	99	1	1	99.0000	0.7333	1.0697	99	99	XS	ZM	99	99	2	2000	1	3	1	1	XS	S	X	S	
1	19-May-2016	  21	Red	NaN	o	y	99	1	1	99.0000	0.7680	1.1198	99	99	OY	AZ	99	99	2	850	1	3	1	1	OY	Y	O	Y	
1	19-May-2016	  22	Red	NaN	c	z	99	1	1	99.0000	0.4563	1.2073	99	99	CZ	DY	99	99	2	850	1	3	1	1	CZ	Z	C	Z	
1	19-May-2016	  23	Red	NaN	q	e	99	1	1	99.0000	0.5005	0.9327	99	99	QE	UR	99	99	2	850	1	3	1	1	QE	E	Q	E	
1	19-May-2016	  24	Red	NaN	o	.	99	0	99	99.0000	1.2008	99.0000	99	99	QK	MU	9	9	1	850	1	3	1	1	QK	Q	Q	K	
1	19-May-2016	  25	Red	NaN	c	.	99	1	99	99.0000	1.1722	99.0000	99	99	CB	YV	9	9	1	1050	1	3	1	1	CB	C	C	B	
1	19-May-2016	  26	Red	NaN	h	.	99	1	99	99.0000	0.9971	99.0000	99	99	HA	TN	9	9	1	650	1	3	1	1	HA	H	H	A	
1	19-May-2016	  27	Red	NaN	f	k	99	1	1	99.0000	0.3465	0.5788	99	99	FK	AE	99	99	2	1050	1	3	1	1	FK	K	F	K	
1	19-May-2016	  28	Red	NaN	k	e	99	1	1	99.0000	0.2764	0.8932	99	99	KE	BC	99	99	2	2000	1	3	1	1	KE	E	K	E	
1	19-May-2016	  29	Red	NaN	x	.	99	0	99	99.0000	1.1059	99.0000	99	99	HY	XF	9	9	1	850	1	3	1	1	HY	H	H	Y	
1	19-May-2016	  30	Red	NaN	d	.	99	1	99	99.0000	0.9267	99.0000	99	99	DF	SU	9	9	1	850	1	3	1	1	DF	D	D	F	
1	19-May-2016	  31	Red	NaN	b	w	99	1	1	99.0000	0.7560	1.2293	99	99	BW	CU	99	99	2	850	1	3	1	1	BW	W	B	W	
1	19-May-2016	  32	Red	NaN	e	x	99	1	0	99.0000	0.3445	0.6955	99	99	EZ	RV	99	99	2	2000	1	3	1	1	EZ	Z	E	Z	
1	19-May-2016	   1	Blue	NaN	m	.	99	0	99	99.0000	1.0184	99.0000	99	99	BQ	NR	9	9	1	1050	1	3	1	1	BQ	B	B	Q	
1	19-May-2016	   2	Blue	NaN	y	r	99	0	0	99.0000	1.0071	1.3035	99	99	XA	NP	99	99	2	850	1	3	1	1	XA	A	X	A	
1	19-May-2016	   3	Blue	NaN	u	z	99	1	1	99.0000	0.3351	0.7899	99	99	UZ	AM	99	99	2	650	1	3	1	1	UZ	Z	U	Z	
1	19-May-2016	   4	Blue	NaN	f	.	99	1	99	99.0000	1.0867	99.0000	99	99	FH	UV	9	9	1	1050	1	3	1	1	FH	F	F	H	
1	19-May-2016	   5	Blue	NaN	a	o	99	1	1	99.0000	0.3355	0.7263	99	99	AO	BW	99	99	2	2000	1	3	1	1	AO	O	A	O	
1	19-May-2016	   6	Blue	NaN	h	o	99	1	1	99.0000	0.5309	0.7390	99	99	HO	SA	99	99	2	2000	1	3	1	1	HO	O	H	O	
1	19-May-2016	   7	Blue	NaN	j	.	99	1	99	99.0000	1.0127	99.0000	99	99	JU	VC	9	9	1	650	1	3	1	1	JU	J	J	U	
1	19-May-2016	   8	Blue	NaN	a	c	99	1	1	99.0000	0.7935	1.0573	99	99	AC	KQ	99	99	2	1050	1	3	1	1	AC	C	A	C	
1	19-May-2016	   9	Blue	NaN	n	x	99	1	1	99.0000	0.3185	0.8386	99	99	NX	DF	99	99	2	1050	1	3	1	1	NX	X	N	X	
1	19-May-2016	  10	Blue	NaN	g	.	99	1	99	99.0000	0.9738	99.0000	99	99	GM	BL	9	9	1	850	1	3	1	1	GM	G	G	M	
1	19-May-2016	  11	Blue	NaN	y	h	99	1	1	99.0000	0.8878	1.0555	99	99	YH	PB	99	99	2	650	1	3	1	1	YH	H	Y	H	
1	19-May-2016	  12	Blue	NaN	u	b	99	1	1	99.0000	0.6080	0.8630	99	99	UB	LJ	99	99	2	650	1	3	1	1	UB	B	U	B	
1	19-May-2016	  13	Blue	NaN	p	q	99	1	0	99.0000	0.8866	1.2540	99	99	PN	QD	99	99	2	650	1	3	1	1	PN	N	P	N	
1	19-May-2016	  14	Blue	NaN	r	z	99	1	1	99.0000	0.3228	1.3316	99	99	RZ	BK	99	99	2	1050	1	3	1	1	RZ	Z	R	Z	
1	19-May-2016	  15	Blue	NaN	d	.	99	1	99	99.0000	1.1534	99.0000	99	99	DH	UA	9	9	1	850	1	3	1	1	DH	D	D	H	
1	19-May-2016	  16	Blue	NaN	e	p	99	1	1	99.0000	0.3430	0.8705	99	99	EP	BD	99	99	2	2000	1	3	1	1	EP	P	E	P	
1	19-May-2016	  17	Blue	NaN	y	.	99	1	99	99.0000	0.9472	99.0000	99	99	YA	UC	9	9	1	2000	1	3	1	1	YA	Y	Y	A	
1	19-May-2016	  18	Blue	NaN	b	i	99	0	1	99.0000	1.1402	1.2832	99	99	UI	RH	99	99	2	1050	1	3	1	1	UI	I	U	I	
1	19-May-2016	  19	Blue	NaN	u	.	99	1	99	99.0000	1.1478	99.0000	99	99	UE	RP	9	9	1	850	1	3	1	1	UE	U	U	E	
1	19-May-2016	  20	Blue	NaN	b	.	99	0	99	99.0000	1.2132	99.0000	99	99	YO	PE	9	9	1	650	1	3	1	1	YO	Y	Y	O	
1	19-May-2016	  21	Blue	NaN	y	.	99	1	99	99.0000	1.1499	99.0000	99	99	YD	AS	9	9	1	650	1	3	1	1	YD	Y	Y	D	
1	19-May-2016	  22	Blue	NaN	j	.	99	1	99	99.0000	0.4266	99.0000	99	99	JS	YN	9	9	1	2000	1	3	1	1	JS	J	J	S	
1	19-May-2016	  23	Blue	NaN	w	.	99	1	99	99.0000	1.2384	99.0000	99	99	WN	IR	9	9	1	2000	1	3	1	1	WN	W	W	N	
1	19-May-2016	  24	Blue	NaN	e	.	99	1	99	99.0000	5.7738	99.0000	99	99	EL	PV	9	9	1	850	1	3	1	1	EL	E	E	L	
1	19-May-2016	  25	Blue	NaN	u	.	99	1	99	99.0000	0.9842	99.0000	99	99	UM	TY	9	9	1	2000	1	3	1	1	UM	U	U	M	
1	19-May-2016	  26	Blue	NaN	m	k	99	1	0	99.0000	1.2757	1.3471	99	99	MG	IK	99	99	2	850	1	3	1	1	MG	G	M	G	
1	19-May-2016	  27	Blue	NaN	o	r	99	1	0	99.0000	0.8915	3.5786	99	99	OU	GD	99	99	2	850	1	3	1	1	OU	U	O	U	
1	19-May-2016	  28	Blue	NaN	j	.	99	1	99	99.0000	0.9629	99.0000	99	99	JR	FZ	9	9	1	650	1	3	1	1	JR	J	J	R	
1	19-May-2016	  29	Blue	NaN	e	j	99	1	1	99.0000	0.3663	0.7411	99	99	EJ	SF	99	99	2	2000	1	3	1	1	EJ	J	E	J	
1	19-May-2016	  30	Blue	NaN	a	c	99	1	0	99.0000	1.4663	1.9222	99	99	AT	IS	99	99	2	850	1	3	1	1	AT	T	A	T	
1	19-May-2016	  31	Blue	NaN	v	.	99	1	99	99.0000	1.3260	99.0000	99	99	VD	SB	9	9	1	1050	1	3	1	1	VD	V	V	D	
1	19-May-2016	  32	Blue	NaN	m	.	99	1	99	99.0000	1.2669	99.0000	99	99	MV	CF	9	9	1	1050	1	3	1	1	MV	M	M	V	
1	19-May-2016	   1	Red	NaN	t	t	99	1	0	99.0000	0.2042	2.3634	99	99	TE	RB	99	99	2	650	1	3	1	1	TE	E	T	E	
1	19-May-2016	   2	Red	NaN	f	.	99	1	99	99.0000	0.9573	99.0000	99	99	FK	RM	9	9	1	650	1	3	1	1	FK	F	F	K	
1	19-May-2016	   3	Red	NaN	w	w	99	1	0	99.0000	0.0026	0.7038	99	99	WJ	ZK	99	99	2	2000	1	3	1	1	WJ	J	W	J	
1	19-May-2016	   4	Red	NaN	s	t	99	0	0	99.0000	0.9501	1.2613	99	99	RX	ZI	99	99	2	650	1	3	1	1	RX	X	R	X	
1	19-May-2016	   5	Red	NaN	c	h	99	1	1	99.0000	0.8002	0.8322	99	99	CH	ZG	99	99	2	850	1	3	1	1	CH	H	C	H	
1	19-May-2016	   6	Red	NaN	p	.	99	1	99	99.0000	1.3531	99.0000	99	99	PR	CY	9	9	1	850	1	3	1	1	PR	P	P	R	
1	19-May-2016	   7	Red	NaN	o	h	99	1	1	99.0000	0.5821	0.9580	99	99	OH	NY	99	99	2	650	1	3	1	1	OH	H	O	H	
1	19-May-2016	   8	Red	NaN	s	.	99	1	99	99.0000	1.0496	99.0000	99	99	SB	UA	9	9	1	1050	1	3	1	1	SB	S	S	B	
1	19-May-2016	   9	Red	NaN	n	d	99	1	1	99.0000	0.3139	0.7703	99	99	ND	MT	99	99	2	2000	1	3	1	1	ND	D	N	D	
1	19-May-2016	  10	Red	NaN	f	.	99	1	99	99.0000	1.1486	99.0000	99	99	FX	LD	9	9	1	1050	1	3	1	1	FX	F	F	X	
1	19-May-2016	  11	Red	NaN	r	p	99	1	1	99.0000	0.5890	0.9499	99	99	RP	NY	99	99	2	1050	1	3	1	1	RP	P	R	P	
1	19-May-2016	  12	Red	NaN	d	.	99	0	99	99.0000	0.9288	99.0000	99	99	GF	MI	9	9	1	850	1	3	1	1	GF	G	G	F	
1	19-May-2016	  13	Red	NaN	t	.	99	1	99	99.0000	1.1714	99.0000	99	99	TF	YN	9	9	1	2000	1	3	1	1	TF	T	T	F	
1	19-May-2016	  14	Red	NaN	h	.	99	1	99	99.0000	0.8459	99.0000	99	99	HM	QE	9	9	1	2000	1	3	1	1	HM	H	H	M	
1	19-May-2016	  15	Red	NaN	j	.	99	1	99	99.0000	0.9483	99.0000	99	99	JV	XZ	9	9	1	1050	1	3	1	1	JV	J	J	V	
1	19-May-2016	  16	Red	NaN	n	e	99	1	1	99.0000	0.5967	1.0929	99	99	NE	QS	99	99	2	1050	1	3	1	1	NE	E	N	E	
1	19-May-2016	  17	Red	NaN	q	.	99	1	99	99.0000	1.0996	99.0000	99	99	QS	CR	9	9	1	850	1	3	1	1	QS	Q	Q	S	
1	19-May-2016	  18	Red	NaN	m	.	99	1	99	99.0000	0.9668	99.0000	99	99	ME	JS	9	9	1	650	1	3	1	1	ME	M	M	E	
1	19-May-2016	  19	Red	NaN	k	g	99	1	1	99.0000	0.8675	1.1163	99	99	KG	YS	99	99	2	850	1	3	1	1	KG	G	K	G	
1	19-May-2016	  20	Red	NaN	q	f	99	1	1	99.0000	0.6055	0.7339	99	99	QF	TY	99	99	2	1050	1	3	1	1	QF	F	Q	F	
1	19-May-2016	  21	Red	NaN	u	x	99	1	1	99.0000	0.4427	1.0583	99	99	UX	BI	99	99	2	2000	1	3	1	1	UX	X	U	X	
1	19-May-2016	  22	Red	NaN	m	n	99	1	0	99.0000	0.8025	1.0986	99	99	MJ	HP	99	99	2	650	1	3	1	1	MJ	J	M	J	
1	19-May-2016	  23	Red	NaN	c	.	99	1	99	99.0000	1.1283	99.0000	99	99	CD	RV	9	9	1	650	1	3	1	1	CD	C	C	D	
1	19-May-2016	  24	Red	NaN	g	.	99	1	99	99.0000	1.0042	99.0000	99	99	GE	XV	9	9	1	650	1	3	1	1	GE	G	G	E	
1	19-May-2016	  25	Red	NaN	n	w	99	1	0	99.0000	1.2066	2.2953	99	99	NQ	VZ	99	99	2	850	1	3	1	1	NQ	Q	N	Q	
1	19-May-2016	  26	Red	NaN	k	y	99	1	0	99.0000	0.4043	0.8760	99	99	KM	NX	99	99	2	2000	1	3	1	1	KM	M	K	M	
1	19-May-2016	  27	Red	NaN	z	.	99	1	99	99.0000	0.9627	99.0000	99	99	ZA	KR	9	9	1	2000	1	3	1	1	ZA	Z	Z	A	
1	19-May-2016	  28	Red	NaN	v	a	99	1	1	99.0000	1.5187	1.8537	99	99	VA	UY	99	99	2	850	1	3	1	1	VA	A	V	A	
1	19-May-2016	  29	Red	NaN	o	.	99	0	99	99.0000	1.3632	99.0000	99	99	RA	CB	9	9	1	850	1	3	1	1	RA	R	R	A	
1	19-May-2016	  30	Red	NaN	s	.	99	1	99	99.0000	0.9035	99.0000	99	99	SR	VF	9	9	1	1050	1	3	1	1	SR	S	S	R	
1	19-May-2016	  31	Red	NaN	o	z	99	1	1	99.0000	0.5916	1.0406	99	99	OZ	CJ	99	99	2	1050	1	3	1	1	OZ	Z	O	Z	
1	19-May-2016	  32	Red	NaN	r	.	99	1	99	99.0000	0.9610	99.0000	99	99	RF	KJ	9	9	1	2000	1	3	1	1	RF	R	R	F	
1	19-May-2016	   1	Blue	NaN	h	.	99	1	99	99.0000	0.8978	99.0000	99	99	HF	DQ	9	9	1	850	1	3	1	1	HF	H	H	F	
1	19-May-2016	   2	Blue	NaN	b	.	99	1	99	99.0000	1.1191	99.0000	99	99	BF	EG	9	9	1	850	1	3	1	1	BF	B	B	F	
1	19-May-2016	   3	Blue	NaN	y	.	99	1	99	99.0000	1.0458	99.0000	99	99	YT	SI	9	9	1	1050	1	3	1	1	YT	Y	Y	T	
1	19-May-2016	   4	Blue	NaN	d	f	99	1	1	99.0000	0.5008	0.6434	99	99	DF	MV	99	99	2	650	1	3	1	1	DF	F	D	F	
1	19-May-2016	   5	Blue	NaN	v	a	99	1	0	99.0000	1.3305	1.7393	99	99	VO	LA	99	99	2	650	1	3	1	1	VO	O	V	O	
1	19-May-2016	   6	Blue	NaN	f	.	99	1	99	99.0000	0.8519	99.0000	99	99	FI	ER	9	9	1	1050	1	3	1	1	FI	F	F	I	
1	19-May-2016	   7	Blue	NaN	j	.	99	1	99	99.0000	1.1556	99.0000	99	99	JV	MF	9	9	1	1050	1	3	1	1	JV	J	J	V	
1	19-May-2016	   8	Blue	NaN	x	.	99	1	99	99.0000	1.0454	99.0000	99	99	XB	TQ	9	9	1	650	1	3	1	1	XB	X	X	B	
1	19-May-2016	   9	Blue	NaN	j	g	99	1	1	99.0000	0.6438	0.8605	99	99	JG	NS	99	99	2	650	1	3	1	1	JG	G	J	G	
1	19-May-2016	  10	Blue	NaN	x	.	99	1	99	99.0000	0.9145	99.0000	99	99	XE	NK	9	9	1	650	1	3	1	1	XE	X	X	E	
1	19-May-2016	  11	Blue	NaN	i	.	99	1	99	99.0000	0.9808	99.0000	99	99	IQ	YT	9	9	1	2000	1	3	1	1	IQ	I	I	Q	
1	19-May-2016	  12	Blue	NaN	l	.	99	1	99	99.0000	0.4247	99.0000	99	99	LM	CK	9	9	1	1050	1	3	1	1	LM	L	L	M	
1	19-May-2016	  13	Blue	NaN	y	.	99	1	99	99.0000	0.8757	99.0000	99	99	YR	DM	9	9	1	2000	1	3	1	1	YR	Y	Y	R	
1	19-May-2016	  14	Blue	NaN	g	r	99	1	1	99.0000	0.5560	0.5796	99	99	GR	AE	99	99	2	850	1	3	1	1	GR	R	G	R	
1	19-May-2016	  15	Blue	NaN	l	.	99	1	99	99.0000	0.9785	99.0000	99	99	LC	NE	9	9	1	650	1	3	1	1	LC	L	L	C	
1	19-May-2016	  16	Blue	NaN	b	c	99	1	1	99.0000	0.2617	0.8217	99	99	BC	SU	99	99	2	2000	1	3	1	1	BC	C	B	C	
1	19-May-2016	  17	Blue	NaN	k	a	99	1	1	99.0000	0.4313	1.1283	99	99	KA	LZ	99	99	2	850	1	3	1	1	KA	A	K	A	
1	19-May-2016	  18	Blue	NaN	w	.	99	0	99	99.0000	1.3166	99.0000	99	99	ML	SW	9	9	1	650	1	3	1	1	ML	M	M	L	
1	19-May-2016	  19	Blue	NaN	t	y	99	1	0	99.0000	0.7961	1.4117	99	99	TU	RC	99	99	2	2000	1	3	1	1	TU	U	T	U	
1	19-May-2016	  20	Blue	NaN	v	.	99	1	99	99.0000	1.0465	99.0000	99	99	VJ	FO	9	9	1	2000	1	3	1	1	VJ	V	V	J	
1	19-May-2016	  21	Blue	NaN	n	o	99	1	1	99.0000	0.3598	0.8543	99	99	NO	IE	99	99	2	2000	1	3	1	1	NO	O	N	O	
1	19-May-2016	  22	Blue	NaN	g	s	99	0	0	99.0000	1.0075	1.5204	99	99	FQ	SC	99	99	2	850	1	3	1	1	FQ	Q	F	Q	
1	19-May-2016	  23	Blue	NaN	u	.	99	1	99	99.0000	1.1833	99.0000	99	99	UQ	GH	9	9	1	2000	1	3	1	1	UQ	U	U	Q	
1	19-May-2016	  24	Blue	NaN	u	f	99	1	1	99.0000	0.3308	0.7553	99	99	UF	SV	99	99	2	2000	1	3	1	1	UF	F	U	F	
1	19-May-2016	  25	Blue	NaN	r	d	99	0	1	99.0000	1.0558	1.3904	99	99	ED	LS	99	99	2	850	1	3	1	1	ED	D	E	D	
1	19-May-2016	  26	Blue	NaN	o	g	99	1	1	99.0000	0.3676	0.8712	99	99	OG	MA	99	99	2	1050	1	3	1	1	OG	G	O	G	
1	19-May-2016	  27	Blue	NaN	q	e	99	0	0	99.0000	0.8505	1.3455	99	99	ZY	FQ	99	99	2	1050	1	3	1	1	ZY	Y	Z	Y	
1	19-May-2016	  28	Blue	NaN	i	d	99	1	0	99.0000	0.4919	1.1731	99	99	IJ	EC	99	99	2	1050	1	3	1	1	IJ	J	I	J	
1	19-May-2016	  29	Blue	NaN	w	.	99	1	99	99.0000	1.5834	99.0000	99	99	WM	KD	9	9	1	850	1	3	1	1	WM	W	W	M	
1	19-May-2016	  30	Blue	NaN	v	.	99	1	99	99.0000	1.2452	99.0000	99	99	VY	OE	9	9	1	850	1	3	1	1	VY	V	V	Y	
1	19-May-2016	  31	Blue	NaN	t	u	99	1	0	99.0000	0.8534	1.1984	99	99	TO	PX	99	99	2	650	1	3	1	1	TO	O	T	O	
1	19-May-2016	  32	Blue	NaN	f	b	99	1	0	99.0000	0.4767	0.9724	99	99	FV	LS	99	99	2	1050	1	3	1	1	FV	V	F	V	
