SubID	SessionDate	Trial	TargetColor	Response	Correct	RT	leftTargetLetter	rightTargetLetter	leftLetters	rightLetters	leftColors	rightColors	trainLength	TOA	Mask	SOA	centralized	centerLetters	centerTargetLetter	
23	12-May-2016	   1	Red	p	1	0.7948	99	99	PXBG	JSYH	9	9	1	2000	1	3	1	PXBG	P	
23	12-May-2016	   2	Red	g	1	1.2027	99	99	GKUR	QMHV	9	9	1	2000	1	3	1	GKUR	G	
23	12-May-2016	   3	Red	q	1	1.7066	99	99	QMYZ	ABKU	9	9	1	650	1	3	1	QMYZ	Q	
23	12-May-2016	   4	Red	u	1	1.2639	99	99	OXTU	NWEM	9999	9999	4	2000	1	3	1	OXTU	U	
23	12-May-2016	   5	Red	t	0	2.4081	99	99	DCFH	RJUW	99	99	2	2000	1	3	1	DCFH	C	
23	12-May-2016	   6	Red	f	1	1.2839	99	99	LQJF	AODZ	9999	9999	4	650	1	3	1	LQJF	F	
23	12-May-2016	   7	Red	g	1	1.2817	99	99	GKQI	PYAX	9	9	1	2000	1	3	1	GKQI	G	
23	12-May-2016	   8	Red	v	0	1.7298	99	99	VIQN	ZSGK	99	99	2	650	1	3	1	VIQN	I	
23	12-May-2016	   9	Red	y	1	1.2324	99	99	YLND	MVJA	9	9	1	2000	1	3	1	YLND	Y	
23	12-May-2016	  10	Red	r	0	1.1064	99	99	RBLH	OWVD	999	999	3	650	1	3	1	RBLH	L	
23	12-May-2016	  11	Red	w	1	1.2831	99	99	FKAW	URXN	9999	9999	4	2000	1	3	1	FKAW	W	
23	12-May-2016	  12	Red	p	0	1.2942	99	99	TIGH	WRSO	9999	9999	4	2000	1	3	1	TIGH	H	
23	12-May-2016	  13	Red	l	1	1.0705	99	99	TLQN	VHZC	99	99	2	2000	1	3	1	TLQN	L	
23	12-May-2016	  14	Red	c	0	1.2282	99	99	CDGF	TZXS	99	99	2	650	1	3	1	CDGF	D	
23	12-May-2016	  15	Red	a	0	1.2307	99	99	AWXB	DMGE	999	999	3	650	1	3	1	AWXB	X	
23	12-May-2016	  16	Red	k	1	1.2594	99	99	VNKZ	GRLB	999	999	3	2000	1	3	1	VNKZ	K	
23	12-May-2016	  17	Red	w	0	1.3174	99	99	WAVY	XONU	999	999	3	650	1	3	1	WAVY	V	
23	12-May-2016	  18	Red	f	0	1.2607	99	99	MFVI	XSWQ	999	999	3	650	1	3	1	MFVI	V	
23	12-May-2016	  19	Red	e	1	1.5667	99	99	ZHRE	LQFN	9999	9999	4	650	1	3	1	ZHRE	E	
23	12-May-2016	  20	Red	n	1	1.3809	99	99	WNQD	YORG	99	99	2	650	1	3	1	WNQD	N	
23	12-May-2016	  21	Red	x	1	1.5532	99	99	PXKT	FHJY	99	99	2	2000	1	3	1	PXKT	X	
23	12-May-2016	  22	Red	k	1	1.7660	99	99	KGWV	SCDB	9	9	1	650	1	3	1	KGWV	K	
23	12-May-2016	  23	Red	c	0	1.0697	99	99	CZIU	TMBH	9999	9999	4	650	1	3	1	CZIU	U	
23	12-May-2016	  24	Red	a	1	1.4000	99	99	SVAX	ETMR	999	999	3	2000	1	3	1	SVAX	A	
23	12-May-2016	  25	Red	l	1	1.4267	99	99	LVHB	CTSE	9	9	1	650	1	3	1	LVHB	L	
23	12-May-2016	  26	Red	k	1	1.4898	99	99	KQFZ	TPGN	9	9	1	650	1	3	1	KQFZ	K	
23	12-May-2016	  27	Red	w	1	1.3159	99	99	YWRJ	GMKB	99	99	2	2000	1	3	1	YWRJ	W	
23	12-May-2016	  28	Red	b	0	1.2527	99	99	TXGK	YRJS	9999	9999	4	650	1	3	1	TXGK	K	
23	12-May-2016	  29	Red	x	0	1.3439	99	99	RXQU	ZGNC	999	999	3	2000	1	3	1	RXQU	Q	
23	12-May-2016	  30	Red	k	0	1.4373	99	99	KOTN	VERB	99	99	2	650	1	3	1	KOTN	O	
23	12-May-2016	  31	Red	p	1	1.2260	99	99	CIXP	NRBT	9999	9999	4	2000	1	3	1	CIXP	P	
23	12-May-2016	  32	Red	b	1	1.5577	99	99	JHBD	QENZ	999	999	3	2000	1	3	1	JHBD	B	
23	12-May-2016	   1	Blue	w	1	1.1102	99	99	IWOL	DHRE	99	99	2	2000	1	3	1	IWOL	W	
23	12-May-2016	   2	Blue	u	1	0.9174	99	99	LPEU	VQIZ	9999	9999	4	2000	1	3	1	LPEU	U	
23	12-May-2016	   3	Blue	z	0	1.2942	99	99	ZAXS	IKJE	9999	9999	4	650	1	3	1	ZAXS	S	
23	12-May-2016	   4	Blue	v	1	1.0601	99	99	BVTO	CDXM	99	99	2	2000	1	3	1	BVTO	V	
23	12-May-2016	   5	Blue	g	1	1.2986	99	99	GDFY	LQES	9	9	1	2000	1	3	1	GDFY	G	
23	12-May-2016	   6	Blue	z	0	1.0280	99	99	ZFWC	NQRB	9999	9999	4	650	1	3	1	ZFWC	C	
23	12-May-2016	   7	Blue	m	1	1.1318	99	99	MPFH	DVBJ	9	9	1	2000	1	3	1	MPFH	M	
23	12-May-2016	   8	Blue	k	1	1.1144	99	99	WUKS	YDHI	999	999	3	2000	1	3	1	WUKS	K	
23	12-May-2016	   9	Blue	j	0	1.0334	99	99	JFVP	HWEL	999	999	3	650	1	3	1	JFVP	V	
23	12-May-2016	  10	Blue	f	1	1.1925	99	99	FIDJ	EZRC	9	9	1	650	1	3	1	FIDJ	F	
23	12-May-2016	  11	Blue	g	1	1.1450	99	99	GCUJ	ILSZ	9	9	1	650	1	3	1	GCUJ	G	
23	12-May-2016	  12	Blue	a	0	1.1103	99	99	AHSE	NZWP	99	99	2	650	1	3	1	AHSE	H	
23	12-May-2016	  13	Blue	c	1	1.1541	99	99	CZMY	JVWD	9	9	1	2000	1	3	1	CZMY	C	
23	12-May-2016	  14	Blue	b	1	1.0073	99	99	WHBP	ROCZ	999	999	3	2000	1	3	1	WHBP	B	
23	12-May-2016	  15	Blue	t	0	1.0035	99	99	TLBG	CUDF	9999	9999	4	650	1	3	1	TLBG	G	
23	12-May-2016	  16	Blue	m	0	1.1552	99	99	MQNR	COYK	99	99	2	650	1	3	1	MQNR	Q	
23	12-May-2016	  17	Blue	f	1	0.9714	99	99	TNFL	XYPA	999	999	3	2000	1	3	1	TNFL	F	
23	12-May-2016	  18	Blue	l	1	1.1356	99	99	SMLD	NZEO	999	999	3	2000	1	3	1	SMLD	L	
23	12-May-2016	  19	Blue	n	0	0.9017	99	99	NMGW	SOPL	999	999	3	650	1	3	1	NMGW	G	
23	12-May-2016	  20	Blue	x	1	1.1008	99	99	VKOX	HGED	9999	9999	4	650	1	3	1	VKOX	X	
23	12-May-2016	  21	Blue	n	0	1.5458	99	99	NOUM	HTKQ	99	99	2	650	1	3	1	NOUM	O	
23	12-May-2016	  22	Blue	b	1	1.0893	99	99	ZBQO	KVSE	99	99	2	2000	1	3	1	ZBQO	B	
23	12-May-2016	  23	Blue	h	0	1.2545	99	99	HEAF	SCTJ	99	99	2	650	1	3	1	HEAF	E	
23	12-May-2016	  24	Blue	p	1	1.1420	99	99	PERM	KZJO	9	9	1	650	1	3	1	PERM	P	
23	12-May-2016	  25	Blue	u	1	1.0328	99	99	UPNF	ECTV	9	9	1	2000	1	3	1	UPNF	U	
23	12-May-2016	  26	Blue	a	1	1.3688	99	99	YAKW	XCED	99	99	2	2000	1	3	1	YAKW	A	
23	12-May-2016	  27	Blue	s	1	1.1064	99	99	NDKS	WEGI	9999	9999	4	2000	1	3	1	NDKS	S	
23	12-May-2016	  28	Blue	p	1	1.3042	99	99	WYPT	JLQS	999	999	3	650	1	3	1	WYPT	P	
23	12-May-2016	  29	Blue	s	1	1.2471	99	99	SWOJ	IZGN	9	9	1	650	1	3	1	SWOJ	S	
23	12-May-2016	  30	Blue	y	0	1.2099	99	99	LQYI	FDCE	9999	9999	4	2000	1	3	1	LQYI	I	
23	12-May-2016	  31	Blue	s	1	1.0484	99	99	KJZS	LXYM	9999	9999	4	2000	1	3	1	KJZS	S	
23	12-May-2016	  32	Blue	b	0	2.0165	99	99	NILE	DPRG	999	999	3	650	1	3	1	NILE	L	
23	12-May-2016	   1	Red	l	1	0.9537	99	99	ZSAL	MDYK	9999	9999	4	650	1	3	1	ZSAL	L	
23	12-May-2016	   2	Red	s	1	1.1371	99	99	SCNV	HTYF	9	9	1	650	1	3	1	SCNV	S	
23	12-May-2016	   3	Red	b	1	1.0567	99	99	LBWC	RKAQ	99	99	2	2000	1	3	1	LBWC	B	
23	12-May-2016	   4	Red	d	1	1.0207	99	99	DWLT	HPAO	9	9	1	650	1	3	1	DWLT	D	
23	12-May-2016	   5	Red	f	0	1.0019	99	99	VFRY	EGDN	999	999	3	2000	1	3	1	VFRY	R	
23	12-May-2016	   6	Red	g	1	1.6482	99	99	GMAZ	KEYS	9	9	1	650	1	3	1	GMAZ	G	
23	12-May-2016	   7	Red	z	1	1.0740	99	99	ZOWN	PCKS	9	9	1	2000	1	3	1	ZOWN	Z	
23	12-May-2016	   8	Red	r	1	1.5116	99	99	RJCF	IWYV	9	9	1	650	1	3	1	RJCF	R	
23	12-May-2016	   9	Red	j	1	1.1762	99	99	EHJN	IWGV	999	999	3	650	1	3	1	EHJN	J	
23	12-May-2016	  10	Red	o	0	1.1662	99	99	WMQJ	AOPC	999	999	3	2000	1	3	1	WMQJ	Q	
23	12-May-2016	  11	Red	p	0	1.1558	99	99	PIQD	VGUO	9999	9999	4	650	1	3	1	PIQD	D	
23	12-May-2016	  12	Red	l	1	1.2681	99	99	OHTL	DYUW	9999	9999	4	2000	1	3	1	OHTL	L	
23	12-May-2016	  13	Red	k	1	1.1083	99	99	PKYJ	NUSR	99	99	2	2000	1	3	1	PKYJ	K	
23	12-May-2016	  14	Red	f	0	0.8984	99	99	FPKD	MGUJ	999	999	3	650	1	3	1	FPKD	K	
23	12-May-2016	  15	Red	x	0	1.0417	99	99	XURD	HVKB	9999	9999	4	650	1	3	1	XURD	D	
23	12-May-2016	  16	Red	v	1	1.0276	99	99	SZVH	JLKA	999	999	3	2000	1	3	1	SZVH	V	
23	12-May-2016	  17	Red	a	0	0.9711	99	99	YSXQ	LRKA	9	9	1	2000	1	3	1	YSXQ	Y	
23	12-May-2016	  18	Red	j	1	1.2015	99	99	KLOJ	WAGT	9999	9999	4	2000	1	3	1	KLOJ	J	
23	12-May-2016	  19	Red	b	1	1.5218	99	99	KAPB	JHXL	9999	9999	4	2000	1	3	1	KAPB	B	
23	12-May-2016	  20	Red	n	0	1.0148	99	99	NJSH	TIDY	99	99	2	650	1	3	1	NJSH	J	
23	12-May-2016	  21	Red	o	1	1.0391	99	99	OKAB	WJEM	9	9	1	2000	1	3	1	OKAB	O	
23	12-May-2016	  22	Red	l	0	1.4308	99	99	LIOK	QZMW	99	99	2	2000	1	3	1	LIOK	I	
23	12-May-2016	  23	Red	p	0	1.0348	99	99	PUXB	VDMJ	99	99	2	650	1	3	1	PUXB	U	
23	12-May-2016	  24	Red	c	0	1.2188	99	99	XCNZ	MVFL	999	999	3	650	1	3	1	XCNZ	N	
23	12-May-2016	  25	Red	d	1	1.0890	99	99	GCID	HFKV	9999	9999	4	2000	1	3	1	GCID	D	
23	12-May-2016	  26	Red	i	1	1.1270	99	99	UIZW	RXEQ	99	99	2	650	1	3	1	UIZW	I	
23	12-May-2016	  27	Red	a	1	0.8623	99	99	ECAJ	NKGL	999	999	3	650	1	3	1	ECAJ	A	
23	12-May-2016	  28	Red	o	0	1.1007	99	99	QIOS	ZPLK	9999	9999	4	650	1	3	1	QIOS	S	
23	12-May-2016	  29	Red	q	0	1.0521	99	99	QIFT	AXLN	99	99	2	650	1	3	1	QIFT	I	
23	12-May-2016	  30	Red	j	1	1.0214	99	99	ZNJB	ASEL	999	999	3	2000	1	3	1	ZNJB	J	
23	12-May-2016	  31	Red	l	1	1.1653	99	99	LVYD	ITXQ	9	9	1	2000	1	3	1	LVYD	L	
23	12-May-2016	  32	Red	w	1	1.0419	99	99	LWVS	GQJC	99	99	2	2000	1	3	1	LWVS	W	
23	12-May-2016	   1	Blue	r	1	1.1808	99	99	REND	IKYX	9	9	1	650	1	3	1	REND	R	
23	12-May-2016	   2	Blue	s	1	1.1056	99	99	NDSU	VBKF	999	999	3	2000	1	3	1	NDSU	S	
23	12-May-2016	   3	Blue	e	1	1.0550	99	99	EGIP	USTR	9	9	1	2000	1	3	1	EGIP	E	
23	12-May-2016	   4	Blue	j	0	0.9170	99	99	JUCF	VPMY	99	99	2	650	1	3	1	JUCF	U	
23	12-May-2016	   5	Blue	d	1	0.8911	99	99	HDOM	ZRPU	99	99	2	2000	1	3	1	HDOM	D	
23	12-May-2016	   6	Blue	u	1	1.0623	99	99	UANI	CHLT	9	9	1	2000	1	3	1	UANI	U	
23	12-May-2016	   7	Blue	k	1	1.0788	99	99	MKQH	GUFC	99	99	2	2000	1	3	1	MKQH	K	
23	12-May-2016	   8	Blue	x	1	1.2062	99	99	QYXV	WPAC	999	999	3	650	1	3	1	QYXV	X	
23	12-May-2016	   9	Blue	j	0	1.9593	99	99	IPRA	LCOX	9	9	1	650	1	3	1	IPRA	I	
23	12-May-2016	  10	Blue	g	1	1.3562	99	99	GQTK	CEAU	9	9	1	650	1	3	1	GQTK	G	
23	12-May-2016	  11	Blue	f	0	1.0191	99	99	EFLH	VROZ	999	999	3	650	1	3	1	EFLH	L	
23	12-May-2016	  12	Blue	l	1	1.0615	99	99	RLMF	GNUS	99	99	2	2000	1	3	1	RLMF	L	
23	12-May-2016	  13	Blue	d	1	0.9507	99	99	PVSD	COGB	9999	9999	4	2000	1	3	1	PVSD	D	
23	12-May-2016	  14	Blue	b	1	1.0191	99	99	OUBP	AXDT	999	999	3	650	1	3	1	OUBP	B	
23	12-May-2016	  15	Blue	a	1	1.1672	99	99	VNDA	KHQG	9999	9999	4	650	1	3	1	VNDA	A	
23	12-May-2016	  16	Blue	b	0	2.1729	99	99	QMKI	LBEY	9999	9999	4	650	1	3	1	QMKI	I	
23	12-May-2016	  17	Blue	p	1	1.0314	99	99	YLPK	RTXN	999	999	3	2000	1	3	1	YLPK	P	
23	12-May-2016	  18	Blue	e	1	1.0339	99	99	UJME	CZRA	9999	9999	4	650	1	3	1	UJME	E	
23	12-May-2016	  19	Blue	x	0	1.1775	99	99	XFQY	MRNK	99	99	2	650	1	3	1	XFQY	F	
23	12-May-2016	  20	Blue	k	1	1.1401	99	99	KPHU	ZMOE	9	9	1	2000	1	3	1	KPHU	K	
23	12-May-2016	  21	Blue	m	1	0.9621	99	99	XMCD	LEGR	99	99	2	2000	1	3	1	XMCD	M	
23	12-May-2016	  22	Blue	n	1	0.9887	99	99	LFNK	VQUW	999	999	3	650	1	3	1	LFNK	N	
23	12-May-2016	  23	Blue	f	1	1.0682	99	99	FCDN	AJMX	9	9	1	2000	1	3	1	FCDN	F	
23	12-May-2016	  24	Blue	t	1	1.2177	99	99	TFNW	SIUK	9	9	1	650	1	3	1	TFNW	T	
23	12-May-2016	  25	Blue	t	0	2.0694	99	99	YCBJ	RZWL	99	99	2	650	1	3	1	YCBJ	C	
23	12-May-2016	  26	Blue	n	0	0.9275	99	99	NVBU	TCXQ	99	99	2	650	1	3	1	NVBU	V	
23	12-May-2016	  27	Blue	y	0	1.4311	99	99	MZYR	GNHJ	9999	9999	4	2000	1	3	1	MZYR	R	
23	12-May-2016	  28	Blue	h	0	2.4940	99	99	PWHM	ONTX	9999	9999	4	2000	1	3	1	PWHM	M	
23	12-May-2016	  29	Blue	y	1	1.2379	99	99	UPJY	ZGWD	9999	9999	4	650	1	3	1	UPJY	Y	
23	12-May-2016	  30	Blue	n	1	1.2321	99	99	WUNC	KBRZ	999	999	3	2000	1	3	1	WUNC	N	
23	12-May-2016	  31	Blue	c	1	1.1173	99	99	PDXC	ZORU	9999	9999	4	2000	1	3	1	PDXC	C	
23	12-May-2016	  32	Blue	x	1	1.2455	99	99	NAXE	ZILF	999	999	3	2000	1	3	1	NAXE	X	
23	12-May-2016	   1	Red	j	1	1.1364	W	J	TXWH	BRJS	rrb	bbr	3	2000	1	6	0	99	99	
23	12-May-2016	   2	Red	v	1	1.1467	G	V	GCXR	VBFM	b	r	1	2000	1	6	0	99	99	
23	12-May-2016	   3	Red	n	1	0.8971	W	N	XWVZ	ENJH	rb	br	2	2000	1	6	0	99	99	
23	12-May-2016	   4	Red	y	1	1.2034	G	Y	GDMS	YCPW	b	r	1	650	1	6	0	99	99	
23	12-May-2016	   5	Red	w	1	0.8490	Z	W	JYFZ	COIW	rrbb	bbrr	4	2000	1	6	0	99	99	
23	12-May-2016	   6	Red	n	1	1.0273	N	Z	UOXN	QVGZ	bbbr	rrrb	4	2000	1	6	0	99	99	
23	12-May-2016	   7	Red	b	1	1.0852	F	B	WFXU	ABRN	rb	br	2	2000	1	6	0	99	99	
23	12-May-2016	   8	Red	h	1	1.1812	H	M	KAHN	JLMU	rbr	brb	3	2000	1	6	0	99	99	
23	12-May-2016	   9	Red	f	1	1.0878	A	F	EASD	HFNT	rb	br	2	2000	1	6	0	99	99	
23	12-May-2016	  10	Red	u	1	1.0903	H	U	RWLH	CENU	rrrb	bbbr	4	2000	1	6	0	99	99	
23	12-May-2016	  11	Red	r	0	1.1602	K	D	TKLC	JDMZ	rr	bb	2	2000	1	6	0	99	99	
23	12-May-2016	  12	Red	d	0	1.0587	F	H	DFJP	CHNQ	rr	bb	2	650	1	6	0	99	99	
23	12-May-2016	  13	Red	q	0	1.5447	X	H	QXYW	ZHBI	rb	br	2	650	1	6	0	99	99	
23	12-May-2016	  14	Red	o	0	1.3844	M	U	VPMD	XOUG	rbr	brb	3	650	1	6	0	99	99	
23	12-May-2016	  15	Red	x	1	1.1360	X	C	QPWX	EVRC	brrr	rbbb	4	2000	1	6	0	99	99	
23	12-May-2016	  16	Red	v	1	1.3321	E	V	EROZ	VHAP	b	r	1	2000	1	6	0	99	99	
23	12-May-2016	  17	Red	q	1	1.0023	Q	F	YMQR	ACFS	brr	rbb	3	650	1	6	0	99	99	
23	12-May-2016	  18	Red	w	1	2.6998	S	W	SUZO	WCYR	b	r	1	650	1	6	0	99	99	
23	12-May-2016	  19	Red	s	1	1.2717	C	S	CDNR	SLTJ	b	r	1	650	1	6	0	99	99	
23	12-May-2016	  20	Red	q	0	1.3369	R	P	XKNR	MBLP	bbbb	rrrr	4	650	1	6	0	99	99	
23	12-May-2016	  21	Red	z	0	2.8611	L	S	ZLAO	GSWV	br	rb	2	650	1	6	0	99	99	
23	12-May-2016	  22	Red	l	0	1.8519	X	O	GXYF	LODS	br	rb	2	650	1	6	0	99	99	
23	12-May-2016	  23	Red	o	0	1.4011	U	R	VOJU	AQGR	bbbr	rrrb	4	650	1	6	0	99	99	
23	12-May-2016	  24	Red	o	1	1.2920	O	X	OUDZ	XJBV	r	b	1	650	1	6	0	99	99	
23	12-May-2016	  25	Red	i	1	1.2213	I	Z	XFIG	DYZV	rbr	brb	3	2000	1	6	0	99	99	
23	12-May-2016	  26	Red	v	1	1.2644	V	S	XRVQ	FASD	rrr	bbb	3	2000	1	6	0	99	99	
23	12-May-2016	  27	Red	n	1	1.4797	U	N	UZJM	NPRY	b	r	1	2000	1	6	0	99	99	
23	12-May-2016	  28	Red	r	1	1.0721	W	R	GNWO	XURI	brb	rbr	3	650	1	6	0	99	99	
23	12-May-2016	  29	Red	j	1	1.2553	J	B	JFOY	BPUL	r	b	1	2000	1	6	0	99	99	
23	12-May-2016	  30	Red	p	1	0.9768	P	D	YQLP	FJND	brbr	rbrb	4	650	1	6	0	99	99	
23	12-May-2016	  31	Red	t	0	1.0595	N	U	WFNJ	ITUO	bbr	rrb	3	650	1	6	0	99	99	
23	12-May-2016	  32	Red	f	1	1.2848	G	F	BYHG	MXJF	bbrb	rrbr	4	650	1	6	0	99	99	
23	12-May-2016	   1	Blue	a	1	1.0950	G	A	GPQE	AJCI	r	b	1	2000	1	6	0	99	99	
23	12-May-2016	   2	Blue	x	1	1.2090	X	R	XGDP	RFLA	b	r	1	650	1	6	0	99	99	
23	12-May-2016	   3	Blue	e	0	1.1431	E	A	KRCE	FNHA	bbrr	rrbb	4	650	1	6	0	99	99	
23	12-May-2016	   4	Blue	g	0	1.3477	W	D	HGWC	IQDO	rbb	brr	3	650	1	6	0	99	99	
23	12-May-2016	   5	Blue	z	1	0.9928	N	Z	NMLR	ZQEO	r	b	1	2000	1	6	0	99	99	
23	12-May-2016	   6	Blue	s	0	1.1001	I	R	FEKI	SYWR	rbrr	brbb	4	650	1	6	0	99	99	
23	12-May-2016	   7	Blue	j	1	1.1687	B	J	EBMW	SJHQ	br	rb	2	2000	1	6	0	99	99	
23	12-May-2016	   8	Blue	h	1	1.0528	H	T	XHQI	CTSU	rb	br	2	2000	1	6	0	99	99	
23	12-May-2016	   9	Blue	o	1	2.1506	S	O	TWSK	NPOL	rrr	bbb	3	650	1	6	0	99	99	
23	12-May-2016	  10	Blue	d	1	0.9824	D	R	DSGQ	RXKH	b	r	1	2000	1	6	0	99	99	
23	12-May-2016	  11	Blue	e	1	0.9783	E	M	YAEV	NFMR	rbb	brr	3	2000	1	6	0	99	99	
23	12-May-2016	  12	Blue	p	1	1.2718	P	H	FYBP	DNOH	bbbb	rrrr	4	2000	1	6	0	99	99	
23	12-May-2016	  13	Blue	x	1	1.1539	N	X	CKNW	BZXQ	rbr	brb	3	2000	1	6	0	99	99	
23	12-May-2016	  14	Blue	a	0	1.0052	H	K	CQHV	YIKZ	bbb	rrr	3	650	1	6	0	99	99	
23	12-May-2016	  15	Blue	z	1	1.1840	Z	C	XIZQ	PACB	rrb	bbr	3	2000	1	6	0	99	99	
23	12-May-2016	  16	Blue	u	1	1.2519	M	U	YMNK	XUCW	br	rb	2	2000	1	6	0	99	99	
23	12-May-2016	  17	Blue	d	1	1.1721	J	D	JARV	DQPG	r	b	1	650	1	6	0	99	99	
23	12-May-2016	  18	Blue	b	0	1.1019	X	M	GXJI	BMZP	br	rb	2	2000	1	6	0	99	99	
23	12-May-2016	  19	Blue	e	0	1.5208	Z	F	LWEZ	YXSF	bbbr	rrrb	4	2000	1	6	0	99	99	
23	12-May-2016	  20	Blue	o	1	1.3256	F	O	FXPA	OTRW	r	b	1	2000	1	6	0	99	99	
23	12-May-2016	  21	Blue	i	1	1.7229	Q	I	QCTL	INXR	r	b	1	650	1	6	0	99	99	
23	12-May-2016	  22	Blue	t	1	1.0361	C	T	YBHC	XDGT	rbrr	brbb	4	650	1	6	0	99	99	
23	12-May-2016	  23	Blue	b	0	1.1978	X	R	UOXN	IPRW	rbb	brr	3	650	1	6	0	99	99	
23	12-May-2016	  24	Blue	e	1	1.6234	I	E	KIJQ	TEUD	br	rb	2	650	1	6	0	99	99	
23	12-May-2016	  25	Blue	b	0	1.7147	W	Y	XWSD	ZYIK	bb	rr	2	650	1	6	0	99	99	
23	12-May-2016	  26	Blue	p	1	0.9893	D	P	YZXD	QBHP	rrrr	bbbb	4	650	1	6	0	99	99	
23	12-May-2016	  27	Blue	m	0	1.2130	Y	B	AYTU	MBDW	rb	br	2	650	1	6	0	99	99	
23	12-May-2016	  28	Blue	t	1	1.1134	E	T	VFEW	ZXTC	rbr	brb	3	2000	1	6	0	99	99	
23	12-May-2016	  29	Blue	t	1	1.4052	T	Q	THUD	QIOS	b	r	1	650	1	6	0	99	99	
23	12-May-2016	  30	Blue	n	0	1.0921	X	S	MYEX	UINS	rrrb	bbbr	4	2000	1	6	0	99	99	
23	12-May-2016	  31	Blue	s	1	1.0572	Y	S	VYPO	ESTX	br	rb	2	650	1	6	0	99	99	
23	12-May-2016	  32	Blue	r	1	1.1323	R	Z	DEAR	PFYZ	brrb	rbbr	4	2000	1	6	0	99	99	
23	12-May-2016	   1	Red	y	1	1.1685	I	Y	XIAS	GYLZ	rb	br	2	2000	1	6	0	99	99	
23	12-May-2016	   2	Red	o	1	1.3130	C	O	HPRC	TXIO	rbbb	brrr	4	2000	1	6	0	99	99	
23	12-May-2016	   3	Red	r	1	1.1767	S	R	NYTS	DQVR	rbbb	brrr	4	650	1	6	0	99	99	
23	12-May-2016	   4	Red	g	1	1.1941	R	G	RJPX	GUHM	b	r	1	650	1	6	0	99	99	
23	12-May-2016	   5	Red	c	1	1.1271	O	C	BTOJ	QXCL	bbb	rrr	3	2000	1	6	0	99	99	
23	12-May-2016	   6	Red	q	0	1.8043	P	J	FPWS	QJLY	br	rb	2	650	1	6	0	99	99	
23	12-May-2016	   7	Red	x	1	1.1386	X	W	TYXH	ESWI	brr	rbb	3	2000	1	6	0	99	99	
23	12-May-2016	   8	Red	j	1	1.1831	K	J	XSKU	FGJE	brb	rbr	3	650	1	6	0	99	99	
23	12-May-2016	   9	Red	m	1	1.0697	U	M	CBTU	PJFM	brbb	rbrr	4	2000	1	6	0	99	99	
23	12-May-2016	  10	Red	h	1	1.1564	Q	H	QIPK	HEXN	b	r	1	650	1	6	0	99	99	
23	12-May-2016	  11	Red	m	0	1.0479	V	Y	AVHX	MYSC	bb	rr	2	2000	1	6	0	99	99	
23	12-May-2016	  12	Red	x	1	1.0891	N	X	VECN	AURX	rbbb	brrr	4	650	1	6	0	99	99	
23	12-May-2016	  13	Red	b	1	1.1308	N	B	EOMN	KXWB	rrbb	bbrr	4	2000	1	6	0	99	99	
23	12-May-2016	  14	Red	s	1	1.2710	S	V	SYPL	VBQD	r	b	1	650	1	6	0	99	99	
23	12-May-2016	  15	Red	v	1	0.9630	X	V	OQFX	YSIV	bbrb	rrbr	4	2000	1	6	0	99	99	
23	12-May-2016	  16	Red	v	1	1.2597	F	V	FSDT	VJXR	b	r	1	2000	1	6	0	99	99	
23	12-May-2016	  17	Red	f	1	1.1721	X	F	XKTQ	FWIY	b	r	1	2000	1	6	0	99	99	
23	12-May-2016	  18	Red	b	0	1.0864	Y	V	NBYM	RQVC	rrb	bbr	3	650	1	6	0	99	99	
23	12-May-2016	  19	Red	u	1	1.1235	O	U	OZCT	URHV	b	r	1	650	1	6	0	99	99	
23	12-May-2016	  20	Red	g	0	0.9838	B	Z	HBND	GZMY	br	rb	2	650	1	6	0	99	99	
23	12-May-2016	  21	Red	l	1	1.1461	L	B	JLPT	IBVD	br	rb	2	2000	1	6	0	99	99	
23	12-May-2016	  22	Red	r	1	1.0855	F	R	NFYO	ZRLK	bb	rr	2	650	1	6	0	99	99	
23	12-May-2016	  23	Red	k	1	1.1987	C	K	IJCL	RMKD	rbb	brr	3	2000	1	6	0	99	99	
23	12-May-2016	  24	Red	m	0	0.9540	E	J	YPEV	AMJU	bbr	rrb	3	2000	1	6	0	99	99	
23	12-May-2016	  25	Red	t	1	1.2067	D	T	VDEC	QTIH	rb	br	2	2000	1	6	0	99	99	
23	12-May-2016	  26	Red	b	0	1.0339	X	P	BSIX	MARP	rbrb	brbr	4	650	1	6	0	99	99	
23	12-May-2016	  27	Red	i	0	0.9870	O	G	FIOW	VNGX	rrb	bbr	3	650	1	6	0	99	99	
23	12-May-2016	  28	Red	p	1	1.3796	P	I	NPJW	DISL	br	rb	2	650	1	6	0	99	99	
23	12-May-2016	  29	Red	b	0	1.6307	C	X	CWOV	XALI	r	b	1	2000	1	6	0	99	99	
23	12-May-2016	  30	Red	x	1	2.0453	X	V	BMOX	DWGV	rbrr	brbb	4	650	1	6	0	99	99	
23	12-May-2016	  31	Red	a	1	1.1207	G	A	GJLM	ANWI	b	r	1	2000	1	6	0	99	99	
23	12-May-2016	  32	Red	k	0	1.3736	B	E	NKBX	IPEG	rrb	bbr	3	650	1	6	0	99	99	
23	12-May-2016	   1	Blue	c	1	1.2291	U	C	UBMK	CZTA	r	b	1	2000	1	6	0	99	99	
23	12-May-2016	   2	Blue	z	0	1.1581	D	N	ODSC	ZNHI	rr	bb	2	2000	1	6	0	99	99	
23	12-May-2016	   3	Blue	o	1	0.9659	H	O	QICH	XRAO	bbrr	rrbb	4	2000	1	6	0	99	99	
23	12-May-2016	   4	Blue	l	1	1.7924	L	V	LNFG	VRIO	b	r	1	650	1	6	0	99	99	
23	12-May-2016	   5	Blue	a	0	0.8319	L	I	YOAL	TBVI	bbbr	rrrb	4	650	1	6	0	99	99	
23	12-May-2016	   6	Blue	s	0	0.9360	X	C	BFXH	SZCR	rrr	bbb	3	650	1	6	0	99	99	
23	12-May-2016	   7	Blue	c	0	1.2177	G	V	PGWE	CVRY	rr	bb	2	650	1	6	0	99	99	
23	12-May-2016	   8	Blue	d	1	1.3264	N	D	RZNC	VHDY	rrr	bbb	3	2000	1	6	0	99	99	
23	12-May-2016	   9	Blue	n	0	1.0461	X	Y	HDOX	NLIY	rbbb	brrr	4	650	1	6	0	99	99	
23	12-May-2016	  10	Blue	d	1	1.0498	D	J	SRBD	CFGJ	rbrb	brbr	4	2000	1	6	0	99	99	
23	12-May-2016	  11	Blue	f	1	1.2078	F	T	FEMJ	TDGB	b	r	1	650	1	6	0	99	99	
23	12-May-2016	  12	Blue	s	0	0.8988	P	L	BXPO	SNLC	rbr	brb	3	650	1	6	0	99	99	
23	12-May-2016	  13	Blue	l	1	1.2093	L	U	ZYLH	NGUW	rrb	bbr	3	2000	1	6	0	99	99	
23	12-May-2016	  14	Blue	p	1	1.5229	F	P	MFSZ	QPHT	rr	bb	2	650	1	6	0	99	99	
23	12-May-2016	  15	Blue	c	1	1.0494	C	D	CVGI	DMJO	b	r	1	2000	1	6	0	99	99	
23	12-May-2016	  16	Blue	k	0	1.1549	W	E	KJGW	HOCE	bbbb	rrrr	4	650	1	6	0	99	99	
23	12-May-2016	  17	Blue	a	1	0.9894	A	X	AKCB	XNUR	b	r	1	2000	1	6	0	99	99	
23	12-May-2016	  18	Blue	k	1	0.9540	X	K	QZBX	RFPK	rrbr	bbrb	4	2000	1	6	0	99	99	
23	12-May-2016	  19	Blue	t	0	1.1143	T	Q	DIUT	NESQ	rrrr	bbbb	4	2000	1	6	0	99	99	
23	12-May-2016	  20	Blue	g	1	1.1196	G	F	NGJL	XFBT	bb	rr	2	2000	1	6	0	99	99	
23	12-May-2016	  21	Blue	p	1	1.0705	P	W	QSPU	BAWX	rbb	brr	3	2000	1	6	0	99	99	
23	12-May-2016	  22	Blue	g	1	1.2988	G	U	GOQT	UPIW	b	r	1	650	1	6	0	99	99	
23	12-May-2016	  23	Blue	c	0	1.0501	Z	P	CZJR	FPDX	br	rb	2	650	1	6	0	99	99	
23	12-May-2016	  24	Blue	s	1	1.3164	B	S	TCBL	XJSK	rrr	bbb	3	2000	1	6	0	99	99	
23	12-May-2016	  25	Blue	a	1	1.2179	A	D	TVAK	XZDG	bbb	rrr	3	650	1	6	0	99	99	
23	12-May-2016	  26	Blue	z	1	1.4842	D	Z	BDYX	QZTL	rr	bb	2	650	1	6	0	99	99	
23	12-May-2016	  27	Blue	i	1	1.2528	C	I	FCNM	ZIJH	br	rb	2	2000	1	6	0	99	99	
23	12-May-2016	  28	Blue	u	0	1.7994	G	Q	PAUG	BOEQ	rrbr	bbrb	4	650	1	6	0	99	99	
23	12-May-2016	  29	Blue	q	1	1.3262	R	Q	SRUP	JQBX	br	rb	2	2000	1	6	0	99	99	
23	12-May-2016	  30	Blue	g	1	1.4024	G	Y	GVEL	YHKW	b	r	1	2000	1	6	0	99	99	
23	12-May-2016	  31	Blue	i	1	1.2462	I	L	ZCIV	NRLH	rbb	brr	3	650	1	6	0	99	99	
23	12-May-2016	  32	Blue	p	1	1.5418	O	P	OHCQ	PFXR	r	b	1	650	1	6	0	99	99	
