SubID	SessionDate	Trial	TargetColor	Response	Response1	Response2	Correct	Correct1	Correct2	RT	RT1	RT2	leftTargetLetter	rightTargetLetter	leftLetters	rightLetters	leftColors	rightColors	trainLength	TOA	Mask	SOA	centralized	resp_all	centerLetters	centerTargetLetter	centerTargetLetter1	centerTargetLetter2	
2	19-May-2016	   1	Blue	NaN	g	.	99	1	99	99.0000	0.9229	99.0000	99	99	GQ	XC	9	9	1	650	1	2	1	1	GQ	G	G	Q	
2	19-May-2016	   2	Blue	NaN	h	.	99	1	99	99.0000	2.5418	99.0000	99	99	HE	LK	9	9	1	2000	1	2	1	1	HE	H	H	E	
2	19-May-2016	   3	Blue	NaN	m	u	99	1	0	99.0000	1.3132	1.6897	99	99	MV	XT	99	99	2	650	1	2	1	1	MV	V	M	V	
2	19-May-2016	   4	Blue	NaN	a	w	99	1	1	99.0000	0.4036	0.8347	99	99	AW	NT	99	99	2	650	1	2	1	1	AW	W	A	W	
2	19-May-2016	   5	Blue	NaN	s	s	99	0	1	99.0000	0.0024	4.1074	99	99	JS	WK	99	99	2	2000	1	2	1	1	JS	S	J	S	
2	19-May-2016	   6	Blue	NaN	s	.	99	1	99	99.0000	0.9296	99.0000	99	99	SU	FK	9	9	1	2000	1	2	1	1	SU	S	S	U	
2	19-May-2016	   7	Blue	NaN	a	.	99	1	99	99.0000	0.8200	99.0000	99	99	AW	OH	9	9	1	1050	1	2	1	1	AW	A	A	W	
2	19-May-2016	   8	Blue	NaN	r	.	99	1	99	99.0000	0.5079	99.0000	99	99	RA	GY	9	9	1	650	1	2	1	1	RA	R	R	A	
2	19-May-2016	   9	Blue	NaN	g	.	99	1	99	99.0000	0.7010	99.0000	99	99	GM	OT	9	9	1	850	1	2	1	1	GM	G	G	M	
2	19-May-2016	  10	Blue	NaN	f	.	99	1	99	99.0000	0.6635	99.0000	99	99	FY	LR	9	9	1	850	1	2	1	1	FY	F	F	Y	
2	19-May-2016	  11	Blue	NaN	r	.	99	1	99	99.0000	0.8041	99.0000	99	99	RO	JH	9	9	1	650	1	2	1	1	RO	R	R	O	
2	19-May-2016	  12	Blue	NaN	j	j	99	1	0	99.0000	1.4077	1.4101	99	99	JG	IS	99	99	2	1050	1	2	1	1	JG	G	J	G	
2	19-May-2016	  13	Blue	NaN	o	.	99	0	99	99.0000	1.0699	99.0000	99	99	QO	ZY	9	9	1	1050	1	2	1	1	QO	Q	Q	O	
2	19-May-2016	  14	Blue	NaN	y	s	99	1	0	99.0000	0.7178	1.1087	99	99	YJ	IZ	99	99	2	850	1	2	1	1	YJ	J	Y	J	
2	19-May-2016	  15	Blue	NaN	n	.	99	1	99	99.0000	1.1621	99.0000	99	99	NI	SV	9	9	1	2000	1	2	1	1	NI	N	N	I	
2	19-May-2016	  16	Blue	NaN	r	z	99	1	1	99.0000	0.4005	0.7675	99	99	RZ	NW	99	99	2	850	1	2	1	1	RZ	Z	R	Z	
2	19-May-2016	  17	Blue	NaN	y	h	99	1	1	99.0000	0.4363	0.6451	99	99	YH	UQ	99	99	2	850	1	2	1	1	YH	H	Y	H	
2	19-May-2016	  18	Blue	NaN	o	e	99	0	1	99.0000	0.5724	0.8277	99	99	QE	AB	99	99	2	2000	1	2	1	1	QE	E	Q	E	
2	19-May-2016	  19	Blue	NaN	z	z	99	1	0	99.0000	1.1334	1.4213	99	99	ZY	LC	99	99	2	2000	1	2	1	1	ZY	Y	Z	Y	
2	19-May-2016	  20	Blue	NaN	k	n	99	1	1	99.0000	1.1858	1.3375	99	99	KN	IM	99	99	2	2000	1	2	1	1	KN	N	K	N	
2	19-May-2016	  21	Blue	NaN	n	n	99	0	0	99.0000	2.4992	2.7318	99	99	DE	TP	99	99	2	1050	1	2	1	1	DE	E	D	E	
2	19-May-2016	  22	Blue	NaN	c	y	99	1	1	99.0000	0.0024	0.4351	99	99	CY	TW	99	99	2	850	1	2	1	1	CY	Y	C	Y	
2	19-May-2016	  23	Blue	NaN	x	.	99	1	99	99.0000	1.0179	99.0000	99	99	XN	VH	9	9	1	850	1	2	1	1	XN	X	X	N	
2	19-May-2016	  24	Blue	NaN	m	.	99	1	99	99.0000	0.6982	99.0000	99	99	MV	PS	9	9	1	1050	1	2	1	1	MV	M	M	V	
2	19-May-2016	  25	Blue	NaN	b	.	99	1	99	99.0000	0.8147	99.0000	99	99	BF	EV	9	9	1	850	1	2	1	1	BF	B	B	F	
2	19-May-2016	  26	Blue	NaN	r	a	99	1	0	99.0000	0.7332	0.7413	99	99	RE	LI	99	99	2	650	1	2	1	1	RE	E	R	E	
2	19-May-2016	  27	Blue	NaN	b	y	99	0	1	99.0000	0.2858	0.3805	99	99	LY	DB	99	99	2	1050	1	2	1	1	LY	Y	L	Y	
2	19-May-2016	  28	Blue	NaN	n	.	99	1	99	99.0000	1.0032	99.0000	99	99	NG	PC	9	9	1	650	1	2	1	1	NG	N	N	G	
2	19-May-2016	  29	Blue	NaN	d	.	99	1	99	99.0000	0.6214	99.0000	99	99	DO	XV	9	9	1	1050	1	2	1	1	DO	D	D	O	
2	19-May-2016	  30	Blue	NaN	t	m	99	1	0	99.0000	0.8490	0.9834	99	99	TP	YN	99	99	2	1050	1	2	1	1	TP	P	T	P	
2	19-May-2016	  31	Blue	NaN	p	.	99	1	99	99.0000	0.5947	99.0000	99	99	PW	IA	9	9	1	2000	1	2	1	1	PW	P	P	W	
2	19-May-2016	  32	Blue	NaN	c	y	99	1	0	99.0000	0.7455	0.9695	99	99	CU	BR	99	99	2	650	1	2	1	1	CU	U	C	U	
2	19-May-2016	   1	Red	NaN	k	t	99	1	1	99.0000	2.0030	2.3066	99	99	KT	ZM	99	99	2	2000	1	2	1	1	KT	T	K	T	
2	19-May-2016	   2	Red	NaN	u	j	99	1	1	99.0000	0.5781	0.8732	99	99	UJ	CZ	99	99	2	650	1	2	1	1	UJ	J	U	J	
2	19-May-2016	   3	Red	NaN	x	.	99	1	99	99.0000	0.7749	99.0000	99	99	XT	FG	9	9	1	850	1	2	1	1	XT	X	X	T	
2	19-May-2016	   4	Red	NaN	u	.	99	1	99	99.0000	0.6805	99.0000	99	99	UC	YH	9	9	1	2000	1	2	1	1	UC	U	U	C	
2	19-May-2016	   5	Red	NaN	w	.	99	1	99	99.0000	0.8981	99.0000	99	99	WE	XA	9	9	1	650	1	2	1	1	WE	W	W	E	
2	19-May-2016	   6	Red	NaN	j	.	99	0	99	99.0000	0.7825	99.0000	99	99	LD	WT	9	9	1	850	1	2	1	1	LD	L	L	D	
2	19-May-2016	   7	Red	NaN	x	.	99	1	99	99.0000	0.6084	99.0000	99	99	XM	TP	9	9	1	1050	1	2	1	1	XM	X	X	M	
2	19-May-2016	   8	Red	NaN	y	.	99	1	99	99.0000	0.8248	99.0000	99	99	YV	HB	9	9	1	1050	1	2	1	1	YV	Y	Y	V	
2	19-May-2016	   9	Red	NaN	c	j	99	1	1	99.0000	0.6911	0.9874	99	99	CJ	IX	99	99	2	1050	1	2	1	1	CJ	J	C	J	
2	19-May-2016	  10	Red	NaN	w	j	99	1	0	99.0000	3.6721	6.4398	99	99	WC	IR	99	99	2	850	1	2	1	1	WC	C	W	C	
2	19-May-2016	  11	Red	NaN	i	i	99	1	0	99.0000	2.2927	2.2950	99	99	IZ	DS	99	99	2	650	1	2	1	1	IZ	Z	I	Z	
2	19-May-2016	  12	Red	NaN	w	s	99	0	1	99.0000	2.6300	4.8288	99	99	HS	WN	99	99	2	1050	1	2	1	1	HS	S	H	S	
2	19-May-2016	  13	Red	NaN	x	.	99	1	99	99.0000	0.8565	99.0000	99	99	XS	LC	9	9	1	650	1	2	1	1	XS	X	X	S	
2	19-May-2016	  14	Red	NaN	h	.	99	1	99	99.0000	0.2138	99.0000	99	99	HS	GF	9	9	1	650	1	2	1	1	HS	H	H	S	
2	19-May-2016	  15	Red	NaN	w	.	99	1	99	99.0000	0.1043	99.0000	99	99	WN	RE	9	9	1	850	1	2	1	1	WN	W	W	N	
2	19-May-2016	  16	Red	NaN	a	.	99	1	99	99.0000	0.2714	99.0000	99	99	AQ	BC	9	9	1	650	1	2	1	1	AQ	A	A	Q	
2	19-May-2016	  17	Red	NaN	q	.	99	1	99	99.0000	0.0366	99.0000	99	99	QM	YZ	9	9	1	1050	1	2	1	1	QM	Q	Q	M	
2	19-May-2016	  18	Red	NaN	p	v	99	1	1	99.0000	0.4406	1.3273	99	99	PV	CB	99	99	2	2000	1	2	1	1	PV	V	P	V	
2	19-May-2016	  19	Red	NaN	a	f	99	1	1	99.0000	0.9424	1.2395	99	99	AF	HQ	99	99	2	2000	1	2	1	1	AF	F	A	F	
2	19-May-2016	  20	Red	NaN	k	.	99	1	99	99.0000	0.4484	99.0000	99	99	KX	CF	9	9	1	2000	1	2	1	1	KX	K	K	X	
2	19-May-2016	  21	Red	NaN	j	.	99	1	99	99.0000	0.4352	99.0000	99	99	JN	FH	9	9	1	850	1	2	1	1	JN	J	J	N	
2	19-May-2016	  22	Red	NaN	f	v	99	0	1	99.0000	0.5091	1.1413	99	99	KV	CW	99	99	2	1050	1	2	1	1	KV	V	K	V	
2	19-May-2016	  23	Red	NaN	j	j	99	1	0	99.0000	0.3076	0.3099	99	99	JK	GP	99	99	2	2000	1	2	1	1	JK	K	J	K	
2	19-May-2016	  24	Red	NaN	v	y	99	1	1	99.0000	0.6718	0.7520	99	99	VY	JH	99	99	2	850	1	2	1	1	VY	Y	V	Y	
2	19-May-2016	  25	Red	NaN	n	v	99	1	0	99.0000	0.6277	3.4588	99	99	NY	QC	99	99	2	650	1	2	1	1	NY	Y	N	Y	
2	19-May-2016	  26	Red	NaN	r	.	99	1	99	99.0000	0.7179	99.0000	99	99	RS	UI	9	9	1	2000	1	2	1	1	RS	R	R	S	
2	19-May-2016	  27	Red	NaN	u	.	99	1	99	99.0000	0.6808	99.0000	99	99	UP	AD	9	9	1	1050	1	2	1	1	UP	U	U	P	
2	19-May-2016	  28	Red	NaN	i	n	99	1	0	99.0000	1.3768	1.5040	99	99	IC	NS	99	99	2	850	1	2	1	1	IC	C	I	C	
2	19-May-2016	  29	Red	NaN	s	j	99	1	0	99.0000	0.0024	0.7334	99	99	SI	VW	99	99	2	1050	1	2	1	1	SI	I	S	I	
2	19-May-2016	  30	Red	NaN	i	o	99	1	1	99.0000	0.0025	0.3619	99	99	IO	AE	99	99	2	850	1	2	1	1	IO	O	I	O	
2	19-May-2016	  31	Red	NaN	u	.	99	1	99	99.0000	0.6649	99.0000	99	99	UR	OG	9	9	1	2000	1	2	1	1	UR	U	U	R	
2	19-May-2016	  32	Red	NaN	f	d	99	1	0	99.0000	0.2857	2.8785	99	99	FK	DU	99	99	2	650	1	2	1	1	FK	K	F	K	
2	19-May-2016	   1	Blue	NaN	w	v	99	0	0	99.0000	0.4522	0.5095	99	99	XF	WR	99	99	2	650	1	2	1	1	XF	F	X	F	
2	19-May-2016	   2	Blue	NaN	m	.	99	1	99	99.0000	0.5387	99.0000	99	99	MI	VD	9	9	1	1050	1	2	1	1	MI	M	M	I	
2	19-May-2016	   3	Blue	NaN	r	.	99	1	99	99.0000	0.2908	99.0000	99	99	RL	IX	9	9	1	650	1	2	1	1	RL	R	R	L	
2	19-May-2016	   4	Blue	NaN	e	s	99	1	1	99.0000	0.7799	1.0199	99	99	ES	CF	99	99	2	650	1	2	1	1	ES	S	E	S	
2	19-May-2016	   5	Blue	NaN	p	w	99	1	1	99.0000	0.2869	0.9425	99	99	PW	CF	99	99	2	2000	1	2	1	1	PW	W	P	W	
2	19-May-2016	   6	Blue	NaN	p	.	99	1	99	99.0000	0.7537	99.0000	99	99	PW	XT	9	9	1	2000	1	2	1	1	PW	P	P	W	
2	19-May-2016	   7	Blue	NaN	w	.	99	1	99	99.0000	0.5856	99.0000	99	99	WI	EP	9	9	1	650	1	2	1	1	WI	W	W	I	
2	19-May-2016	   8	Blue	NaN	z	a	99	1	0	99.0000	0.1819	5.4220	99	99	ZL	AS	99	99	2	1050	1	2	1	1	ZL	L	Z	L	
2	19-May-2016	   9	Blue	NaN	t	.	99	1	99	99.0000	1.0469	99.0000	99	99	TK	CM	9	9	1	1050	1	2	1	1	TK	T	T	K	
2	19-May-2016	  10	Blue	NaN	o	.	99	0	99	99.0000	0.7740	99.0000	99	99	QI	YD	9	9	1	1050	1	2	1	1	QI	Q	Q	I	
2	19-May-2016	  11	Blue	NaN	m	.	99	1	99	99.0000	0.5187	99.0000	99	99	MI	YV	9	9	1	650	1	2	1	1	MI	M	M	I	
2	19-May-2016	  12	Blue	NaN	x	v	99	1	0	99.0000	0.5687	0.9524	99	99	XQ	JC	99	99	2	650	1	2	1	1	XQ	Q	X	Q	
2	19-May-2016	  13	Blue	NaN	t	g	99	1	1	99.0000	0.3730	0.7966	99	99	TG	CX	99	99	2	650	1	2	1	1	TG	G	T	G	
2	19-May-2016	  14	Blue	NaN	s	.	99	1	99	99.0000	0.6929	99.0000	99	99	SY	IK	9	9	1	2000	1	2	1	1	SY	S	S	Y	
2	19-May-2016	  15	Blue	NaN	j	s	99	0	0	99.0000	1.6202	2.4529	99	99	IK	PA	99	99	2	1050	1	2	1	1	IK	K	I	K	
2	19-May-2016	  16	Blue	NaN	h	.	99	1	99	99.0000	0.5715	99.0000	99	99	HW	MY	9	9	1	850	1	2	1	1	HW	H	H	W	
2	19-May-2016	  17	Blue	NaN	b	m	99	0	1	99.0000	1.4708	1.5820	99	99	QM	DL	99	99	2	850	1	2	1	1	QM	M	Q	M	
2	19-May-2016	  18	Blue	NaN	z	o	99	1	0	99.0000	0.1338	0.6381	99	99	ZF	JD	99	99	2	850	1	2	1	1	ZF	F	Z	F	
2	19-May-2016	  19	Blue	NaN	b	n	99	1	0	99.0000	0.0024	0.5827	99	99	BL	EV	99	99	2	2000	1	2	1	1	BL	L	B	L	
2	19-May-2016	  20	Blue	NaN	n	.	99	0	99	99.0000	0.6471	99.0000	99	99	LD	GN	9	9	1	850	1	2	1	1	LD	L	L	D	
2	19-May-2016	  21	Blue	NaN	s	u	99	1	1	99.0000	0.8810	1.0162	99	99	SU	OY	99	99	2	1050	1	2	1	1	SU	U	S	U	
2	19-May-2016	  22	Blue	NaN	v	.	99	1	99	99.0000	0.8019	99.0000	99	99	VE	AH	9	9	1	1050	1	2	1	1	VE	V	V	E	
2	19-May-2016	  23	Blue	NaN	w	b	99	1	0	99.0000	0.5230	0.8201	99	99	WQ	JI	99	99	2	2000	1	2	1	1	WQ	Q	W	Q	
2	19-May-2016	  24	Blue	NaN	k	.	99	1	99	99.0000	0.5795	99.0000	99	99	KB	VC	9	9	1	850	1	2	1	1	KB	K	K	B	
2	19-May-2016	  25	Blue	NaN	d	.	99	1	99	99.0000	0.3554	99.0000	99	99	DE	AY	9	9	1	650	1	2	1	1	DE	D	D	E	
2	19-May-2016	  26	Blue	NaN	n	.	99	0	99	99.0000	0.4741	99.0000	99	99	LQ	RM	9	9	1	850	1	2	1	1	LQ	L	L	Q	
2	19-May-2016	  27	Blue	NaN	m	.	99	1	99	99.0000	2.2775	99.0000	99	99	MK	WP	9	9	1	2000	1	2	1	1	MK	M	M	K	
2	19-May-2016	  28	Blue	NaN	i	n	99	1	0	99.0000	1.2274	1.2297	99	99	IY	MT	99	99	2	850	1	2	1	1	IY	Y	I	Y	
2	19-May-2016	  29	Blue	NaN	b	.	99	1	99	99.0000	0.8599	99.0000	99	99	BT	XI	9	9	1	2000	1	2	1	1	BT	B	B	T	
2	19-May-2016	  30	Blue	NaN	z	s	99	1	1	99.0000	0.6141	0.8544	99	99	ZS	CR	99	99	2	1050	1	2	1	1	ZS	S	Z	S	
2	19-May-2016	  31	Blue	NaN	u	i	99	1	1	99.0000	0.6885	0.8244	99	99	UI	MN	99	99	2	850	1	2	1	1	UI	I	U	I	
2	19-May-2016	  32	Blue	NaN	v	y	99	1	1	99.0000	0.5364	0.7120	99	99	VY	GK	99	99	2	2000	1	2	1	1	VY	Y	V	Y	
2	19-May-2016	   1	Red	NaN	b	.	99	1	99	99.0000	0.4674	99.0000	99	99	BW	GK	9	9	1	650	1	2	1	1	BW	B	B	W	
2	19-May-2016	   2	Red	NaN	x	o	99	1	1	99.0000	0.3932	0.6821	99	99	XO	LS	99	99	2	2000	1	2	1	1	XO	O	X	O	
2	19-May-2016	   3	Red	NaN	n	.	99	1	99	99.0000	0.6467	99.0000	99	99	NZ	RE	9	9	1	850	1	2	1	1	NZ	N	N	Z	
2	19-May-2016	   4	Red	NaN	y	b	99	1	0	99.0000	0.4777	0.8467	99	99	YO	PA	99	99	2	850	1	2	1	1	YO	O	Y	O	
2	19-May-2016	   5	Red	NaN	d	.	99	1	99	99.0000	0.5754	99.0000	99	99	DR	YU	9	9	1	1050	1	2	1	1	DR	D	D	R	
2	19-May-2016	   6	Red	NaN	f	.	99	1	99	99.0000	0.5571	99.0000	99	99	FD	SP	9	9	1	650	1	2	1	1	FD	F	F	D	
2	19-May-2016	   7	Red	NaN	z	y	99	0	0	99.0000	0.0228	0.7503	99	99	QD	CY	99	99	2	2000	1	2	1	1	QD	D	Q	D	
2	19-May-2016	   8	Red	NaN	a	.	99	1	99	99.0000	0.6266	99.0000	99	99	AM	ZL	9	9	1	1050	1	2	1	1	AM	A	A	M	
2	19-May-2016	   9	Red	NaN	n	.	99	1	99	99.0000	0.6238	99.0000	99	99	NY	JT	9	9	1	650	1	2	1	1	NY	N	N	Y	
2	19-May-2016	  10	Red	NaN	b	.	99	0	99	99.0000	4.0606	99.0000	99	99	TR	EY	9	9	1	2000	1	2	1	1	TR	T	T	R	
2	19-May-2016	  11	Red	NaN	z	b	99	1	0	99.0000	0.8981	2.3856	99	99	ZG	BO	99	99	2	650	1	2	1	1	ZG	G	Z	G	
2	19-May-2016	  12	Red	NaN	p	f	99	1	1	99.0000	0.5495	0.8056	99	99	PF	HL	99	99	2	2000	1	2	1	1	PF	F	P	F	
2	19-May-2016	  13	Red	NaN	u	b	99	1	1	99.0000	0.6845	0.8051	99	99	UB	XD	99	99	2	650	1	2	1	1	UB	B	U	B	
2	19-May-2016	  14	Red	NaN	c	t	99	1	1	99.0000	0.3708	0.5551	99	99	CT	UK	99	99	2	1050	1	2	1	1	CT	T	C	T	
2	19-May-2016	  15	Red	NaN	u	b	99	1	0	99.0000	0.6307	0.7906	99	99	UK	GB	99	99	2	850	1	2	1	1	UK	K	U	K	
2	19-May-2016	  16	Red	NaN	x	.	99	1	99	99.0000	0.8944	99.0000	99	99	XK	FW	9	9	1	650	1	2	1	1	XK	X	X	K	
2	19-May-2016	  17	Red	NaN	x	.	99	1	99	99.0000	0.3632	99.0000	99	99	XN	FG	9	9	1	850	1	2	1	1	XN	X	X	N	
2	19-May-2016	  18	Red	NaN	g	y	99	1	0	99.0000	0.0024	0.3020	99	99	GF	EZ	99	99	2	1050	1	2	1	1	GF	F	G	F	
2	19-May-2016	  19	Red	NaN	z	n	99	1	1	99.0000	0.3799	0.6689	99	99	ZN	UT	99	99	2	1050	1	2	1	1	ZN	N	Z	N	
2	19-May-2016	  20	Red	NaN	f	c	99	1	1	99.0000	0.3325	0.4764	99	99	FC	TO	99	99	2	850	1	2	1	1	FC	C	F	C	
2	19-May-2016	  21	Red	NaN	g	u	99	1	1	99.0000	0.0427	0.3302	99	99	GU	KO	99	99	2	850	1	2	1	1	GU	U	G	U	
2	19-May-2016	  22	Red	NaN	d	j	99	1	1	99.0000	0.4374	0.5011	99	99	DJ	IB	99	99	2	650	1	2	1	1	DJ	J	D	J	
2	19-May-2016	  23	Red	NaN	g	.	99	1	99	99.0000	0.6022	99.0000	99	99	GR	DF	9	9	1	1050	1	2	1	1	GR	G	G	R	
2	19-May-2016	  24	Red	NaN	z	.	99	1	99	99.0000	0.3841	99.0000	99	99	ZP	VF	9	9	1	2000	1	2	1	1	ZP	Z	Z	P	
2	19-May-2016	  25	Red	NaN	v	b	99	1	0	99.0000	0.4621	0.7356	99	99	VL	QO	99	99	2	2000	1	2	1	1	VL	L	V	L	
2	19-May-2016	  26	Red	NaN	p	d	99	0	0	99.0000	0.1432	2.8560	99	99	DP	ZJ	99	99	2	1050	1	2	1	1	DP	P	D	P	
2	19-May-2016	  27	Red	NaN	f	.	99	1	99	99.0000	0.5116	99.0000	99	99	FM	VQ	9	9	1	850	1	2	1	1	FM	F	F	M	
2	19-May-2016	  28	Red	NaN	m	.	99	1	99	99.0000	0.5375	99.0000	99	99	MU	FV	9	9	1	2000	1	2	1	1	MU	M	M	U	
2	19-May-2016	  29	Red	NaN	w	n	99	1	0	99.0000	0.6503	0.9709	99	99	WM	UL	99	99	2	650	1	2	1	1	WM	M	W	M	
2	19-May-2016	  30	Red	NaN	k	.	99	1	99	99.0000	0.8941	99.0000	99	99	KE	LH	9	9	1	1050	1	2	1	1	KE	K	K	E	
2	19-May-2016	  31	Red	NaN	m	.	99	1	99	99.0000	0.4014	99.0000	99	99	MO	LE	9	9	1	2000	1	2	1	1	MO	M	M	O	
2	19-May-2016	  32	Red	NaN	k	.	99	1	99	99.0000	0.3044	99.0000	99	99	KL	YP	9	9	1	850	1	2	1	1	KL	K	K	L	
2	19-May-2016	   1	Blue	j	NaN	NaN	0	99	99	0.5591	99.0000	99.0000	99	99	JY	CX	99	99	2	1050	1	2	1	0	JY	Y	J	Y	
2	19-May-2016	   2	Blue	i	NaN	NaN	0	99	99	0.6353	99.0000	99.0000	99	99	EJ	FS	99	99	2	850	1	2	1	0	EJ	J	E	J	
2	19-May-2016	   3	Blue	t	NaN	NaN	0	99	99	0.6030	99.0000	99.0000	99	99	TU	AO	99	99	2	1050	1	2	1	0	TU	U	T	U	
2	19-May-2016	   4	Blue	e	NaN	NaN	1	99	99	0.8508	99.0000	99.0000	99	99	ER	KP	9	9	1	850	1	2	1	0	ER	E	E	R	
2	19-May-2016	   5	Blue	w	NaN	NaN	1	99	99	0.8965	99.0000	99.0000	99	99	WX	YC	9	9	1	650	1	2	1	0	WX	W	W	X	
2	19-May-2016	   6	Blue	b	NaN	NaN	0	99	99	1.0508	99.0000	99.0000	99	99	DG	OE	9	9	1	650	1	2	1	0	DG	D	D	G	
2	19-May-2016	   7	Blue	h	NaN	NaN	1	99	99	0.5909	99.0000	99.0000	99	99	SH	RF	99	99	2	1050	1	2	1	0	SH	H	S	H	
2	19-May-2016	   8	Blue	o	NaN	NaN	1	99	99	0.9026	99.0000	99.0000	99	99	OU	NM	9	9	1	1050	1	2	1	0	OU	O	O	U	
2	19-May-2016	   9	Blue	v	NaN	NaN	0	99	99	0.5260	99.0000	99.0000	99	99	IW	PU	99	99	2	850	1	2	1	0	IW	W	I	W	
2	19-May-2016	  10	Blue	h	NaN	NaN	1	99	99	0.2480	99.0000	99.0000	99	99	SH	KF	99	99	2	2000	1	2	1	0	SH	H	S	H	
2	19-May-2016	  11	Blue	h	NaN	NaN	1	99	99	0.9318	99.0000	99.0000	99	99	HB	EM	9	9	1	1050	1	2	1	0	HB	H	H	B	
2	19-May-2016	  12	Blue	v	NaN	NaN	1	99	99	0.2492	99.0000	99.0000	99	99	SV	FG	99	99	2	2000	1	2	1	0	SV	V	S	V	
2	19-May-2016	  13	Blue	c	NaN	NaN	0	99	99	1.0152	99.0000	99.0000	99	99	ME	QS	99	99	2	850	1	2	1	0	ME	E	M	E	
2	19-May-2016	  14	Blue	s	NaN	NaN	1	99	99	0.6959	99.0000	99.0000	99	99	GS	QV	99	99	2	650	1	2	1	0	GS	S	G	S	
2	19-May-2016	  15	Blue	k	NaN	NaN	1	99	99	0.9459	99.0000	99.0000	99	99	KQ	NS	9	9	1	2000	1	2	1	0	KQ	K	K	Q	
2	19-May-2016	  16	Blue	t	NaN	NaN	1	99	99	0.7252	99.0000	99.0000	99	99	TQ	WH	9	9	1	2000	1	2	1	0	TQ	T	T	Q	
2	19-May-2016	  17	Blue	j	NaN	NaN	1	99	99	0.5819	99.0000	99.0000	99	99	CJ	PU	99	99	2	650	1	2	1	0	CJ	J	C	J	
2	19-May-2016	  18	Blue	j	NaN	NaN	1	99	99	0.2159	99.0000	99.0000	99	99	DJ	KT	99	99	2	2000	1	2	1	0	DJ	J	D	J	
2	19-May-2016	  19	Blue	a	NaN	NaN	1	99	99	0.5501	99.0000	99.0000	99	99	OA	IJ	99	99	2	850	1	2	1	0	OA	A	O	A	
2	19-May-2016	  20	Blue	t	NaN	NaN	1	99	99	0.8622	99.0000	99.0000	99	99	TK	ML	9	9	1	850	1	2	1	0	TK	T	T	K	
2	19-May-2016	  21	Blue	m	NaN	NaN	1	99	99	0.7396	99.0000	99.0000	99	99	MA	BX	9	9	1	2000	1	2	1	0	MA	M	M	A	
2	19-May-2016	  22	Blue	h	NaN	NaN	0	99	99	1.4862	99.0000	99.0000	99	99	UD	EK	99	99	2	650	1	2	1	0	UD	D	U	D	
2	19-May-2016	  23	Blue	j	NaN	NaN	0	99	99	1.7417	99.0000	99.0000	99	99	DU	MJ	99	99	2	650	1	2	1	0	DU	U	D	U	
2	19-May-2016	  24	Blue	b	NaN	NaN	0	99	99	0.6998	99.0000	99.0000	99	99	IL	DR	9	9	1	2000	1	2	1	0	IL	I	I	L	
2	19-May-2016	  25	Blue	j	NaN	NaN	1	99	99	0.7266	99.0000	99.0000	99	99	JR	LE	9	9	1	850	1	2	1	0	JR	J	J	R	
2	19-May-2016	  26	Blue	g	NaN	NaN	1	99	99	0.5874	99.0000	99.0000	99	99	GU	YF	9	9	1	1050	1	2	1	0	GU	G	G	U	
2	19-May-2016	  27	Blue	n	NaN	NaN	1	99	99	0.6577	99.0000	99.0000	99	99	NB	LR	9	9	1	850	1	2	1	0	NB	N	N	B	
2	19-May-2016	  28	Blue	p	NaN	NaN	1	99	99	0.3970	99.0000	99.0000	99	99	PF	GB	9	9	1	650	1	2	1	0	PF	P	P	F	
2	19-May-2016	  29	Blue	o	NaN	NaN	1	99	99	3.0202	99.0000	99.0000	99	99	OW	DK	9	9	1	1050	1	2	1	0	OW	O	O	W	
2	19-May-2016	  30	Blue	p	NaN	NaN	0	99	99	1.4790	99.0000	99.0000	99	99	GE	BV	99	99	2	2000	1	2	1	0	GE	E	G	E	
2	19-May-2016	  31	Blue	x	NaN	NaN	1	99	99	1.0398	99.0000	99.0000	99	99	XL	CW	9	9	1	650	1	2	1	0	XL	X	X	L	
2	19-May-2016	  32	Blue	p	NaN	NaN	0	99	99	1.1388	99.0000	99.0000	99	99	CF	ND	99	99	2	1050	1	2	1	0	CF	F	C	F	
2	19-May-2016	   1	Red	v	NaN	NaN	0	99	99	1.4702	99.0000	99.0000	99	99	MN	KO	9	9	1	650	1	2	1	0	MN	M	M	N	
2	19-May-2016	   2	Red	n	NaN	NaN	0	99	99	0.7586	99.0000	99.0000	99	99	LY	TB	9	9	1	650	1	2	1	0	LY	L	L	Y	
2	19-May-2016	   3	Red	c	NaN	NaN	1	99	99	0.5289	99.0000	99.0000	99	99	CS	HU	9	9	1	1050	1	2	1	0	CS	C	C	S	
2	19-May-2016	   4	Red	a	NaN	NaN	1	99	99	0.2834	99.0000	99.0000	99	99	JA	RO	99	99	2	2000	1	2	1	0	JA	A	J	A	
2	19-May-2016	   5	Red	q	NaN	NaN	1	99	99	0.2970	99.0000	99.0000	99	99	KQ	VP	99	99	2	1050	1	2	1	0	KQ	Q	K	Q	
2	19-May-2016	   6	Red	p	NaN	NaN	1	99	99	0.8023	99.0000	99.0000	99	99	PD	WI	9	9	1	650	1	2	1	0	PD	P	P	D	
2	19-May-2016	   7	Red	g	NaN	NaN	1	99	99	0.4753	99.0000	99.0000	99	99	RG	MI	99	99	2	850	1	2	1	0	RG	G	R	G	
2	19-May-2016	   8	Red	s	NaN	NaN	1	99	99	1.1663	99.0000	99.0000	99	99	SC	BW	9	9	1	850	1	2	1	0	SC	S	S	C	
2	19-May-2016	   9	Red	w	NaN	NaN	1	99	99	0.9535	99.0000	99.0000	99	99	WD	YQ	9	9	1	850	1	2	1	0	WD	W	W	D	
2	19-May-2016	  10	Red	w	NaN	NaN	1	99	99	0.8227	99.0000	99.0000	99	99	IW	ST	99	99	2	850	1	2	1	0	IW	W	I	W	
2	19-May-2016	  11	Red	t	NaN	NaN	1	99	99	1.5581	99.0000	99.0000	99	99	TO	IK	9	9	1	1050	1	2	1	0	TO	T	T	O	
2	19-May-2016	  12	Red	p	NaN	NaN	0	99	99	3.0438	99.0000	99.0000	99	99	DF	PH	99	99	2	2000	1	2	1	0	DF	F	D	F	
2	19-May-2016	  13	Red	v	NaN	NaN	1	99	99	1.5387	99.0000	99.0000	99	99	DV	JC	99	99	2	1050	1	2	1	0	DV	V	D	V	
2	19-May-2016	  14	Red	j	NaN	NaN	1	99	99	0.9284	99.0000	99.0000	99	99	JS	OH	9	9	1	1050	1	2	1	0	JS	J	J	S	
2	19-May-2016	  15	Red	j	NaN	NaN	1	99	99	0.9216	99.0000	99.0000	99	99	VJ	RF	99	99	2	1050	1	2	1	0	VJ	J	V	J	
2	19-May-2016	  16	Red	g	NaN	NaN	0	99	99	1.2515	99.0000	99.0000	99	99	CF	LP	9	9	1	2000	1	2	1	0	CF	C	C	F	
2	19-May-2016	  17	Red	o	NaN	NaN	0	99	99	1.2433	99.0000	99.0000	99	99	KN	OR	99	99	2	650	1	2	1	0	KN	N	K	N	
2	19-May-2016	  18	Red	z	NaN	NaN	1	99	99	0.2453	99.0000	99.0000	99	99	YZ	MU	99	99	2	2000	1	2	1	0	YZ	Z	Y	Z	
2	19-May-2016	  19	Red	e	NaN	NaN	1	99	99	0.7084	99.0000	99.0000	99	99	SE	KB	99	99	2	1050	1	2	1	0	SE	E	S	E	
2	19-May-2016	  20	Red	v	NaN	NaN	1	99	99	1.5839	99.0000	99.0000	99	99	VG	IH	9	9	1	650	1	2	1	0	VG	V	V	G	
2	19-May-2016	  21	Red	m	NaN	NaN	1	99	99	0.8351	99.0000	99.0000	99	99	MI	AC	9	9	1	2000	1	2	1	0	MI	M	M	I	
2	19-May-2016	  22	Red	y	NaN	NaN	0	99	99	1.0894	99.0000	99.0000	99	99	NM	EH	99	99	2	650	1	2	1	0	NM	M	N	M	
2	19-May-2016	  23	Red	e	NaN	NaN	1	99	99	1.0066	99.0000	99.0000	99	99	EK	SA	9	9	1	2000	1	2	1	0	EK	E	E	K	
2	19-May-2016	  24	Red	v	NaN	NaN	1	99	99	0.9867	99.0000	99.0000	99	99	FV	PG	99	99	2	850	1	2	1	0	FV	V	F	V	
2	19-May-2016	  25	Red	u	NaN	NaN	1	99	99	0.7963	99.0000	99.0000	99	99	PU	KH	99	99	2	650	1	2	1	0	PU	U	P	U	
2	19-May-2016	  26	Red	i	NaN	NaN	1	99	99	5.4374	99.0000	99.0000	99	99	IP	RU	9	9	1	1050	1	2	1	0	IP	I	I	P	
2	19-May-2016	  27	Red	g	NaN	NaN	1	99	99	1.1141	99.0000	99.0000	99	99	GJ	NQ	9	9	1	850	1	2	1	0	GJ	G	G	J	
2	19-May-2016	  28	Red	w	NaN	NaN	1	99	99	0.6722	99.0000	99.0000	99	99	WB	VF	9	9	1	850	1	2	1	0	WB	W	W	B	
2	19-May-2016	  29	Red	b	NaN	NaN	1	99	99	1.3412	99.0000	99.0000	99	99	KB	PG	99	99	2	2000	1	2	1	0	KB	B	K	B	
2	19-May-2016	  30	Red	s	NaN	NaN	1	99	99	0.7970	99.0000	99.0000	99	99	QS	LX	99	99	2	850	1	2	1	0	QS	S	Q	S	
2	19-May-2016	  31	Red	q	NaN	NaN	0	99	99	0.9812	99.0000	99.0000	99	99	BA	CQ	99	99	2	650	1	2	1	0	BA	A	B	A	
2	19-May-2016	  32	Red	w	NaN	NaN	0	99	99	1.2370	99.0000	99.0000	99	99	IM	HU	9	9	1	2000	1	2	1	0	IM	I	I	M	
2	19-May-2016	   1	Blue	s	NaN	NaN	0	99	99	0.3666	99.0000	99.0000	99	99	MI	QW	99	99	2	850	1	2	1	0	MI	I	M	I	
2	19-May-2016	   2	Blue	x	NaN	NaN	1	99	99	1.3662	99.0000	99.0000	99	99	DX	CG	99	99	2	2000	1	2	1	0	DX	X	D	X	
2	19-May-2016	   3	Blue	k	NaN	NaN	1	99	99	0.9069	99.0000	99.0000	99	99	KI	ZD	9	9	1	850	1	2	1	0	KI	K	K	I	
2	19-May-2016	   4	Blue	v	NaN	NaN	1	99	99	0.8467	99.0000	99.0000	99	99	FV	XS	99	99	2	650	1	2	1	0	FV	V	F	V	
2	19-May-2016	   5	Blue	q	NaN	NaN	1	99	99	0.6343	99.0000	99.0000	99	99	EQ	VR	99	99	2	1050	1	2	1	0	EQ	Q	E	Q	
2	19-May-2016	   6	Blue	b	NaN	NaN	0	99	99	1.1816	99.0000	99.0000	99	99	RD	KS	9	9	1	650	1	2	1	0	RD	R	R	D	
2	19-May-2016	   7	Blue	v	NaN	NaN	0	99	99	1.4045	99.0000	99.0000	99	99	YF	JK	99	99	2	1050	1	2	1	0	YF	F	Y	F	
2	19-May-2016	   8	Blue	s	NaN	NaN	1	99	99	0.4713	99.0000	99.0000	99	99	SX	KH	9	9	1	850	1	2	1	0	SX	S	S	X	
2	19-May-2016	   9	Blue	t	NaN	NaN	0	99	99	4.8943	99.0000	99.0000	99	99	VI	YR	99	99	2	850	1	2	1	0	VI	I	V	I	
2	19-May-2016	  10	Blue	q	NaN	NaN	0	99	99	3.7508	99.0000	99.0000	99	99	HO	IB	9	9	1	1050	1	2	1	0	HO	H	H	O	
2	19-May-2016	  11	Blue	s	NaN	NaN	1	99	99	5.5663	99.0000	99.0000	99	99	SB	HL	9	9	1	650	1	2	1	0	SB	S	S	B	
2	19-May-2016	  12	Blue	w	NaN	NaN	1	99	99	0.4503	99.0000	99.0000	99	99	TW	ZH	99	99	2	850	1	2	1	0	TW	W	T	W	
2	19-May-2016	  13	Blue	m	NaN	NaN	1	99	99	1.0161	99.0000	99.0000	99	99	MD	UI	9	9	1	1050	1	2	1	0	MD	M	M	D	
2	19-May-2016	  14	Blue	v	NaN	NaN	0	99	99	0.8969	99.0000	99.0000	99	99	XY	NW	9	9	1	850	1	2	1	0	XY	X	X	Y	
2	19-May-2016	  15	Blue	d	NaN	NaN	0	99	99	0.9656	99.0000	99.0000	99	99	UB	PA	99	99	2	650	1	2	1	0	UB	B	U	B	
2	19-May-2016	  16	Blue	n	NaN	NaN	1	99	99	0.8114	99.0000	99.0000	99	99	FN	YQ	99	99	2	1050	1	2	1	0	FN	N	F	N	
2	19-May-2016	  17	Blue	t	NaN	NaN	0	99	99	0.9769	99.0000	99.0000	99	99	IH	RM	9	9	1	650	1	2	1	0	IH	I	I	H	
2	19-May-2016	  18	Blue	l	NaN	NaN	1	99	99	0.9555	99.0000	99.0000	99	99	LH	CM	9	9	1	2000	1	2	1	0	LH	L	L	H	
2	19-May-2016	  19	Blue	a	NaN	NaN	1	99	99	0.8852	99.0000	99.0000	99	99	AG	ZO	9	9	1	850	1	2	1	0	AG	A	A	G	
2	19-May-2016	  20	Blue	v	NaN	NaN	1	99	99	0.2741	99.0000	99.0000	99	99	KV	WN	99	99	2	2000	1	2	1	0	KV	V	K	V	
2	19-May-2016	  21	Blue	d	NaN	NaN	1	99	99	0.8773	99.0000	99.0000	99	99	DT	VQ	9	9	1	2000	1	2	1	0	DT	D	D	T	
2	19-May-2016	  22	Blue	c	NaN	NaN	0	99	99	3.2985	99.0000	99.0000	99	99	JF	ZC	99	99	2	2000	1	2	1	0	JF	F	J	F	
2	19-May-2016	  23	Blue	m	NaN	NaN	1	99	99	0.8441	99.0000	99.0000	99	99	MO	BP	9	9	1	1050	1	2	1	0	MO	M	M	O	
2	19-May-2016	  24	Blue	w	NaN	NaN	1	99	99	0.9399	99.0000	99.0000	99	99	FW	UD	99	99	2	650	1	2	1	0	FW	W	F	W	
2	19-May-2016	  25	Blue	z	NaN	NaN	1	99	99	0.3828	99.0000	99.0000	99	99	VZ	JN	99	99	2	2000	1	2	1	0	VZ	Z	V	Z	
2	19-May-2016	  26	Blue	v	NaN	NaN	1	99	99	1.0130	99.0000	99.0000	99	99	VA	HM	9	9	1	2000	1	2	1	0	VA	V	V	A	
2	19-May-2016	  27	Blue	c	NaN	NaN	0	99	99	0.4396	99.0000	99.0000	99	99	CI	ZE	99	99	2	850	1	2	1	0	CI	I	C	I	
2	19-May-2016	  28	Blue	b	NaN	NaN	0	99	99	1.1329	99.0000	99.0000	99	99	RT	OY	9	9	1	1050	1	2	1	0	RT	R	R	T	
2	19-May-2016	  29	Blue	a	NaN	NaN	1	99	99	0.9860	99.0000	99.0000	99	99	AK	JQ	9	9	1	2000	1	2	1	0	AK	A	A	K	
2	19-May-2016	  30	Blue	n	NaN	NaN	0	99	99	0.7665	99.0000	99.0000	99	99	YL	VZ	99	99	2	1050	1	2	1	0	YL	L	Y	L	
2	19-May-2016	  31	Blue	h	NaN	NaN	0	99	99	1.4307	99.0000	99.0000	99	99	UI	SA	9	9	1	650	1	2	1	0	UI	U	U	I	
2	19-May-2016	  32	Blue	p	NaN	NaN	1	99	99	0.7053	99.0000	99.0000	99	99	EP	GQ	99	99	2	650	1	2	1	0	EP	P	E	P	
2	19-May-2016	   1	Red	y	NaN	NaN	1	99	99	0.2861	99.0000	99.0000	99	99	GY	CZ	99	99	2	2000	1	2	1	0	GY	Y	G	Y	
2	19-May-2016	   2	Red	s	NaN	NaN	1	99	99	1.0338	99.0000	99.0000	99	99	SW	VD	9	9	1	850	1	2	1	0	SW	S	S	W	
2	19-May-2016	   3	Red	j	NaN	NaN	0	99	99	0.4445	99.0000	99.0000	99	99	JY	LH	99	99	2	1050	1	2	1	0	JY	Y	J	Y	
2	19-May-2016	   4	Red	z	NaN	NaN	1	99	99	0.9692	99.0000	99.0000	99	99	ZT	AW	9	9	1	850	1	2	1	0	ZT	Z	Z	T	
2	19-May-2016	   5	Red	q	NaN	NaN	0	99	99	0.9553	99.0000	99.0000	99	99	NZ	QG	99	99	2	650	1	2	1	0	NZ	Z	N	Z	
2	19-May-2016	   6	Red	f	NaN	NaN	1	99	99	1.1667	99.0000	99.0000	99	99	FV	EW	9	9	1	1050	1	2	1	0	FV	F	F	V	
2	19-May-2016	   7	Red	n	NaN	NaN	0	99	99	0.7406	99.0000	99.0000	99	99	LH	MF	99	99	2	850	1	2	1	0	LH	H	L	H	
2	19-May-2016	   8	Red	b	NaN	NaN	1	99	99	1.5895	99.0000	99.0000	99	99	BF	RG	9	9	1	2000	1	2	1	0	BF	B	B	F	
2	19-May-2016	   9	Red	x	NaN	NaN	1	99	99	0.5959	99.0000	99.0000	99	99	EX	KZ	99	99	2	850	1	2	1	0	EX	X	E	X	
2	19-May-2016	  10	Red	b	NaN	NaN	1	99	99	1.0741	99.0000	99.0000	99	99	BG	LF	9	9	1	850	1	2	1	0	BG	B	B	G	
2	19-May-2016	  11	Red	f	NaN	NaN	1	99	99	1.0338	99.0000	99.0000	99	99	FU	OX	9	9	1	1050	1	2	1	0	FU	F	F	U	
2	19-May-2016	  12	Red	n	NaN	NaN	1	99	99	1.0085	99.0000	99.0000	99	99	NM	BE	9	9	1	650	1	2	1	0	NM	N	N	M	
2	19-May-2016	  13	Red	d	NaN	NaN	0	99	99	1.4889	99.0000	99.0000	99	99	IC	DQ	9	9	1	650	1	2	1	0	IC	I	I	C	
2	19-May-2016	  14	Red	l	NaN	NaN	1	99	99	0.8158	99.0000	99.0000	99	99	LK	XO	9	9	1	1050	1	2	1	0	LK	L	L	K	
2	19-May-2016	  15	Red	x	NaN	NaN	0	99	99	1.0879	99.0000	99.0000	99	99	VF	ED	9	9	1	2000	1	2	1	0	VF	V	V	F	
2	19-May-2016	  16	Red	o	NaN	NaN	1	99	99	1.0206	99.0000	99.0000	99	99	OR	CS	9	9	1	850	1	2	1	0	OR	O	O	R	
2	19-May-2016	  17	Red	o	NaN	NaN	1	99	99	1.1096	99.0000	99.0000	99	99	TO	CA	99	99	2	650	1	2	1	0	TO	O	T	O	
2	19-May-2016	  18	Red	p	NaN	NaN	0	99	99	1.2254	99.0000	99.0000	99	99	ND	XY	99	99	2	650	1	2	1	0	ND	D	N	D	
2	19-May-2016	  19	Red	p	NaN	NaN	1	99	99	0.6850	99.0000	99.0000	99	99	EP	RF	99	99	2	850	1	2	1	0	EP	P	E	P	
2	19-May-2016	  20	Red	d	NaN	NaN	1	99	99	0.9288	99.0000	99.0000	99	99	DY	SJ	9	9	1	2000	1	2	1	0	DY	D	D	Y	
2	19-May-2016	  21	Red	z	NaN	NaN	1	99	99	2.1406	99.0000	99.0000	99	99	ZK	RY	9	9	1	2000	1	2	1	0	ZK	Z	Z	K	
2	19-May-2016	  22	Red	n	NaN	NaN	0	99	99	0.9905	99.0000	99.0000	99	99	GL	RN	99	99	2	2000	1	2	1	0	GL	L	G	L	
2	19-May-2016	  23	Red	v	NaN	NaN	0	99	99	2.7470	99.0000	99.0000	99	99	UY	DW	99	99	2	1050	1	2	1	0	UY	Y	U	Y	
2	19-May-2016	  24	Red	n	NaN	NaN	0	99	99	2.6807	99.0000	99.0000	99	99	IX	RT	99	99	2	2000	1	2	1	0	IX	X	I	X	
2	19-May-2016	  25	Red	v	NaN	NaN	1	99	99	1.2072	99.0000	99.0000	99	99	WV	DF	99	99	2	650	1	2	1	0	WV	V	W	V	
2	19-May-2016	  26	Red	z	NaN	NaN	1	99	99	1.0225	99.0000	99.0000	99	99	ZQ	BU	9	9	1	650	1	2	1	0	ZQ	Z	Z	Q	
2	19-May-2016	  27	Red	t	NaN	NaN	1	99	99	1.2959	99.0000	99.0000	99	99	UT	PX	99	99	2	2000	1	2	1	0	UT	T	U	T	
2	19-May-2016	  28	Red	x	NaN	NaN	1	99	99	2.2059	99.0000	99.0000	99	99	XU	WI	9	9	1	650	1	2	1	0	XU	X	X	U	
2	19-May-2016	  29	Red	m	NaN	NaN	1	99	99	1.3245	99.0000	99.0000	99	99	MJ	FH	9	9	1	1050	1	2	1	0	MJ	M	M	J	
2	19-May-2016	  30	Red	a	NaN	NaN	0	99	99	0.3587	99.0000	99.0000	99	99	JN	AZ	99	99	2	1050	1	2	1	0	JN	N	J	N	
2	19-May-2016	  31	Red	r	NaN	NaN	1	99	99	0.5865	99.0000	99.0000	99	99	VR	ZF	99	99	2	1050	1	2	1	0	VR	R	V	R	
2	19-May-2016	  32	Red	m	NaN	NaN	1	99	99	4.7634	99.0000	99.0000	99	99	LM	VQ	99	99	2	850	1	2	1	0	LM	M	L	M	
