SubID	SessionDate	Trial	TargetColor	Response	Correct	RT	leftTargetLetter	rightTargetLetter	leftLetters	rightLetters	leftColors	rightColors	trainLength	TOA	Mask	SOA	centralized	centerLetters	centerTargetLetter1	11-Mar-16	1	Red	w	0	1.9761	99	99	MQEI	SWLZ	9	9	1	2000	1	4	1	MQEI	M1	11-Mar-16	2	Red	u	1	1.523	99	99	XIMU	TCJL	9999	9999	4	2000	1	4	1	XIMU	U1	11-Mar-16	3	Red	o	0	1.4586	99	99	OFMW	LYXH	99	99	2	650	1	4	1	OFMW	F1	11-Mar-16	4	Red	e	1	1.5237	99	99	IGEL	AXUB	999	999	3	650	1	4	1	IGEL	E1	11-Mar-16	5	Red	t	0	1.0911	99	99	TXKN	SZBP	99	99	2	650	1	4	1	TXKN	X1	11-Mar-16	6	Red	g	1	1.6792	99	99	GHCR	TMLQ	9	9	1	650	1	4	1	GHCR	G1	11-Mar-16	7	Red	w	1	1.5883	99	99	ABEW	CNDX	9999	9999	4	2000	1	4	1	ABEW	W1	11-Mar-16	8	Red	l	1	1.6656	99	99	YLKS	JNTC	99	99	2	2000	1	4	1	YLKS	L1	11-Mar-16	9	Red	p	0	1.1825	99	99	PIMT	LRAG	999	999	3	650	1	4	1	PIMT	M1	11-Mar-16	10	Red	h	1	1.3194	99	99	HSKF	ACTZ	9	9	1	2000	1	4	1	HSKF	H1	11-Mar-16	11	Red	g	0	1.4873	99	99	GOEK	LUAX	9999	9999	4	650	1	4	1	GOEK	K1	11-Mar-16	12	Red	b	1	2.1897	99	99	BZAG	NOJQ	9	9	1	650	1	4	1	BZAG	B1	11-Mar-16	13	Red	j	1	1.3575	99	99	JHAL	GIPF	9	9	1	2000	1	4	1	JHAL	J1	11-Mar-16	14	Red	e	0	1.3158	99	99	EILZ	RFWQ	9999	9999	4	650	1	4	1	EILZ	Z1	11-Mar-16	15	Red	p	0	4.6054	99	99	PXDJ	KCNY	9999	9999	4	2000	1	4	1	PXDJ	J1	11-Mar-16	16	Red	n	0	1.4247	99	99	NLWU	VYRC	99	99	2	650	1	4	1	NLWU	L1	11-Mar-16	17	Red	i	1	1.1738	99	99	GUIC	THWF	999	999	3	2000	1	4	1	GUIC	I1	11-Mar-16	18	Red	u	0	1.3294	99	99	UZGY	LHTF	99	99	2	650	1	4	1	UZGY	Z1	11-Mar-16	19	Red	o	0	2.0554	99	99	QEJW	ORNU	99	99	2	2000	1	4	1	QEJW	E1	11-Mar-16	20	Red	x	0	2.4203	99	99	XOVN	WEDL	99	99	2	2000	1	4	1	XOVN	O1	11-Mar-16	21	Red	n	0	1.5355	99	99	NCGD	AJTX	999	999	3	2000	1	4	1	NCGD	G1	11-Mar-16	22	Red	i	0	1.1988	99	99	BEIN	QYCW	9999	9999	4	650	1	4	1	BEIN	N1	11-Mar-16	23	Red	p	1	2.4888	99	99	PNRE	UYZX	9	9	1	650	1	4	1	PNRE	P1	11-Mar-16	24	Red	b	1	2.2281	99	99	BWLN	UHQP	9	9	1	2000	1	4	1	BWLN	B1	11-Mar-16	25	Red	o	0	3.5569	99	99	QFAZ	HNEV	999	999	3	650	1	4	1	QFAZ	A1	11-Mar-16	26	Red	p	0	4.7024	99	99	GHNC	DIYQ	999	999	3	650	1	4	1	GHNC	N1	11-Mar-16	27	Red	o	0	3.3262	99	99	AQOF	MDVW	99	99	2	2000	1	4	1	AQOF	Q1	11-Mar-16	28	Red	j	1	1.0495	99	99	VGBJ	RFUZ	9999	9999	4	2000	1	4	1	VGBJ	J1	11-Mar-16	29	Red	j	1	1.1957	99	99	LZPJ	ASHY	9999	9999	4	650	1	4	1	LZPJ	J1	11-Mar-16	30	Red	t	1	2.2289	99	99	TFXW	BSLM	9	9	1	650	1	4	1	TFXW	T1	11-Mar-16	31	Red	f	1	1.7183	99	99	BPFT	SYHZ	999	999	3	2000	1	4	1	BPFT	F1	11-Mar-16	32	Red	a	1	1.4556	99	99	SEAO	MIZR	999	999	3	2000	1	4	1	SEAO	A1	11-Mar-16	1	Blue	c	1	1.088	99	99	CKQT	AYUB	9	9	1	650	1	4	1	CKQT	C1	11-Mar-16	2	Blue	g	0	5.6881	99	99	CMGV	XPJT	9999	9999	4	650	1	4	1	CMGV	V1	11-Mar-16	3	Blue	h	1	1.7132	99	99	ZAJH	PGOX	9999	9999	4	2000	1	4	1	ZAJH	H1	11-Mar-16	4	Blue	u	0	1.4767	99	99	UBET	RYDP	999	999	3	2000	1	4	1	UBET	E1	11-Mar-16	5	Blue	e	0	2.1897	99	99	EYGI	ZSUQ	99	99	2	2000	1	4	1	EYGI	Y1	11-Mar-16	6	Blue	y	0	5.0154	99	99	FHVL	SCUR	999	999	3	650	1	4	1	FHVL	V1	11-Mar-16	7	Blue	a	0	1.0371	99	99	ALVG	ZTNF	99	99	2	650	1	4	1	ALVG	L1	11-Mar-16	8	Blue	r	1	1.1915	99	99	IXSR	VUWN	9999	9999	4	650	1	4	1	IXSR	R1	11-Mar-16	9	Blue	s	0	2.5418	99	99	WOPK	JQHZ	9999	9999	4	2000	1	4	1	WOPK	K1	11-Mar-16	10	Blue	d	0	5.8881	99	99	PVHT	GKFB	9	9	1	2000	1	4	1	PVHT	P1	11-Mar-16	11	Blue	d	1	2.3572	99	99	DVWT	AKGF	9	9	1	650	1	4	1	DVWT	D1	11-Mar-16	12	Blue	o	0	4.4295	99	99	DLYM	OWKI	9	9	1	650	1	4	1	DLYM	D1	11-Mar-16	13	Blue	y	1	2.0141	99	99	XYQD	ABOC	99	99	2	2000	1	4	1	XYQD	Y1	11-Mar-16	14	Blue	u	0	2.3745	99	99	UGFO	SXHM	9999	9999	4	650	1	4	1	UGFO	O1	11-Mar-16	15	Blue	d	1	1.3235	99	99	WEBD	NVZG	9999	9999	4	2000	1	4	1	WEBD	D1	11-Mar-16	16	Blue	r	1	1.2966	99	99	RMWG	SBQJ	9	9	1	2000	1	4	1	RMWG	R1	11-Mar-16	17	Blue	j	1	1.5127	99	99	IJPG	DAVY	99	99	2	2000	1	4	1	IJPG	J1	11-Mar-16	18	Blue	l	0	1.2418	99	99	LBRN	QOHT	999	999	3	650	1	4	1	LBRN	R1	11-Mar-16	19	Blue	l	1	1.3897	99	99	GALE	JFPQ	999	999	3	2000	1	4	1	GALE	L1	11-Mar-16	20	Blue	b	1	1.5631	99	99	WRBI	OCUF	999	999	3	2000	1	4	1	WRBI	B1	11-Mar-16	21	Blue	t	1	1.8801	99	99	TXCK	NROB	9	9	1	2000	1	4	1	TXCK	T1	11-Mar-16	22	Blue	b	0	2.0669	99	99	GUXO	FBID	99	99	2	650	1	4	1	GUXO	U1	11-Mar-16	23	Blue	v	1	3.2607	99	99	VAUB	DCWO	9	9	1	2000	1	4	1	VAUB	V1	11-Mar-16	24	Blue	z	1	3.0182	99	99	WUEZ	YSJH	9999	9999	4	650	1	4	1	WUEZ	Z1	11-Mar-16	25	Blue	a	0	4.7657	99	99	OHMS	UACD	99	99	2	2000	1	4	1	OHMS	H1	11-Mar-16	26	Blue	d	0	7.6361	99	99	YHPV	FUDT	999	999	3	650	1	4	1	YHPV	P1	11-Mar-16	27	Blue	s	0	1.3806	99	99	SANO	KZLG	99	99	2	650	1	4	1	SANO	A1	11-Mar-16	28	Blue	b	0	3.3804	99	99	VUBE	OYPI	9999	9999	4	2000	1	4	1	VUBE	E1	11-Mar-16	29	Blue	x	1	1.4908	99	99	BXYG	LKNT	99	99	2	650	1	4	1	BXYG	X1	11-Mar-16	30	Blue	k	1	1.3135	99	99	KBPW	UOEH	9	9	1	650	1	4	1	KBPW	K1	11-Mar-16	31	Blue	g	0	1.3837	99	99	GJUQ	WNRY	999	999	3	650	1	4	1	GJUQ	U1	11-Mar-16	32	Blue	t	1	1.255	99	99	METW	QKNC	999	999	3	2000	1	4	1	METW	T1	11-Mar-16	1	Red	u	1	1.5992	99	99	PNSU	EOLX	9999	9999	4	650	1	4	1	PNSU	U1	11-Mar-16	2	Red	e	1	1.2983	99	99	IERY	GAHS	99	99	2	650	1	4	1	IERY	E1	11-Mar-16	3	Red	u	0	1.0399	99	99	JDXU	NIBM	9	9	1	650	1	4	1	JDXU	J1	11-Mar-16	4	Red	k	0	0.8222	99	99	ZTBE	RCKL	9	9	1	650	1	4	1	ZTBE	Z1	11-Mar-16	5	Red	y	0	1.0868	99	99	YHIM	SZUR	999	999	3	650	1	4	1	YHIM	I1	11-Mar-16	6	Red	l	1	1.3568	99	99	QLNR	XWAE	99	99	2	650	1	4	1	QLNR	L1	11-Mar-16	7	Red	x	1	3.2186	99	99	RXQD	SPKW	99	99	2	2000	1	4	1	RXQD	X1	11-Mar-16	8	Red	y	0	1.4175	99	99	XYIT	ZJBV	999	999	3	2000	1	4	1	XYIT	I1	11-Mar-16	9	Red	j	0	1.4804	99	99	NRJT	GQSZ	9999	9999	4	2000	1	4	1	NRJT	T1	11-Mar-16	10	Red	a	1	1.7947	99	99	FDAZ	LNBC	999	999	3	2000	1	4	1	FDAZ	A1	11-Mar-16	11	Red	p	0	1.7545	99	99	RPJW	BHVN	999	999	3	650	1	4	1	RPJW	J1	11-Mar-16	12	Red	r	1	2.8738	99	99	TRPL	NYBD	99	99	2	2000	1	4	1	TRPL	R1	11-Mar-16	13	Red	w	0	1.4903	99	99	AWVY	OTNG	999	999	3	650	1	4	1	AWVY	V1	11-Mar-16	14	Red	c	1	1.1095	99	99	TOCN	SLZK	999	999	3	2000	1	4	1	TOCN	C1	11-Mar-16	15	Red	b	1	1.1664	99	99	ZMEB	OTVN	9999	9999	4	2000	1	4	1	ZMEB	B1	11-Mar-16	16	Red	m	0	6.0483	99	99	SJVD	NCOM	9	9	1	2000	1	4	1	SJVD	S1	11-Mar-16	17	Red	u	1	6.0813	99	99	ULGO	NJQM	9	9	1	2000	1	4	1	ULGO	U1	11-Mar-16	18	Red	p	0	2.1944	99	99	PWEQ	NIRB	9999	9999	4	650	1	4	1	PWEQ	Q1	11-Mar-16	19	Red	f	1	2.02	99	99	RAFI	KPSG	999	999	3	650	1	4	1	RAFI	F1	11-Mar-16	20	Red	r	1	2.016	99	99	RXFM	YBOJ	9	9	1	650	1	4	1	RXFM	R1	11-Mar-16	21	Red	e	1	1.2367	99	99	LESY	MOGJ	99	99	2	650	1	4	1	LESY	E1	11-Mar-16	22	Red	b	0	1.1811	99	99	BNRK	SHEV	99	99	2	650	1	4	1	BNRK	N1	11-Mar-16	23	Red	u	1	1.3406	99	99	XIRU	CMEL	9999	9999	4	2000	1	4	1	XIRU	U1	11-Mar-16	24	Red	s	1	5.2983	99	99	QSOY	KFWA	99	99	2	2000	1	4	1	QSOY	S1	11-Mar-16	25	Red	f	1	7.2477	99	99	GURF	YIJX	9999	9999	4	650	1	4	1	GURF	F1	11-Mar-16	26	Red	b	1	9.8895	99	99	UMSB	CIOF	9999	9999	4	2000	1	4	1	UMSB	B1	11-Mar-16	27	Red	l	0	11.7703	99	99	GZSA	IYEV	9	9	1	650	1	4	1	GZSA	G1	11-Mar-16	28	Red	l	0	2.5411	99	99	TKMW	QGZJ	99	99	2	2000	1	4	1	TKMW	K1	11-Mar-16	29	Red	n	0	2.6341	99	99	NMWJ	LKCU	999	999	3	2000	1	4	1	NMWJ	W1	11-Mar-16	30	Red	u	0	1.1972	99	99	UDZO	IMTL	9999	9999	4	650	1	4	1	UDZO	O1	11-Mar-16	31	Red	b	0	3.6137	99	99	EIKY	HLBD	9	9	1	2000	1	4	1	EIKY	E1	11-Mar-16	32	Red	t	1	2.2498	99	99	TWGN	YZPS	9	9	1	2000	1	4	1	TWGN	T1	11-Mar-16	1	Blue	j	1	1.7305	99	99	MJFB	TARQ	99	99	2	650	1	4	1	MJFB	J1	11-Mar-16	2	Blue	m	0	5.0191	99	99	SLGD	KPZX	999	999	3	650	1	4	1	SLGD	G1	11-Mar-16	3	Blue	w	1	1.0797	99	99	WGLM	AKUX	9	9	1	2000	1	4	1	WGLM	W1	11-Mar-16	4	Blue	i	0	2.4152	99	99	IPCL	REOQ	999	999	3	650	1	4	1	IPCL	C1	11-Mar-16	5	Blue	d	1	1.7196	99	99	EDOP	KFHB	99	99	2	2000	1	4	1	EDOP	D1	11-Mar-16	6	Blue	w	0	1.1082	99	99	ZXWB	NSGR	9999	9999	4	2000	1	4	1	ZXWB	B1	11-Mar-16	7	Blue	n	0	1.3951	99	99	QONI	ASPH	9999	9999	4	650	1	4	1	QONI	I1	11-Mar-16	8	Blue	s	0	3.9303	99	99	SIHY	EGCX	999	999	3	2000	1	4	1	SIHY	H1	11-Mar-16	9	Blue	w	0	4.5915	99	99	XZOP	WUDI	999	999	3	2000	1	4	1	XZOP	O1	11-Mar-16	10	Blue	f	1	2.698	99	99	FRKU	VCBT	9	9	1	650	1	4	1	FRKU	F1	11-Mar-16	11	Blue	w	0	1.0855	99	99	WICX	HEZL	99	99	2	650	1	4	1	WICX	I1	11-Mar-16	12	Blue	t	1	2.4125	99	99	TCSN	BDQL	9	9	1	2000	1	4	1	TCSN	T1	11-Mar-16	13	Blue	o	0	2.6773	99	99	QOBU	DMXP	9999	9999	4	650	1	4	1	QOBU	U1	11-Mar-16	14	Blue	b	0	11.1094	99	99	FPZY	IBXS	99	99	2	2000	1	4	1	FPZY	P1	11-Mar-16	15	Blue	v	0	1.8216	99	99	XNEZ	OQWJ	9	9	1	2000	1	4	1	XNEZ	X1	11-Mar-16	16	Blue	l	1	1.4681	99	99	WGLF	HQOC	999	999	3	2000	1	4	1	WGLF	L1	11-Mar-16	17	Blue	v	0	4.3889	99	99	BTQI	CPOV	999	999	3	650	1	4	1	BTQI	Q1	11-Mar-16	18	Blue	l	0	2.8839	99	99	UFVM	KDQI	9999	9999	4	2000	1	4	1	UFVM	M1	11-Mar-16	19	Blue	p	0	0.4067	99	99	PNJI	CDEO	9999	9999	4	2000	1	4	1	PNJI	I1	11-Mar-16	20	Blue	b	0	0.9342	99	99	BZGC	JWDE	99	99	2	650	1	4	1	BZGC	Z1	11-Mar-16	21	Blue	b	0	1.1333	99	99	SOVA	CBKJ	9999	9999	4	2000	1	4	1	SOVA	A1	11-Mar-16	22	Blue	c	1	1.3485	99	99	LTCF	AJPM	999	999	3	2000	1	4	1	LTCF	C1	11-Mar-16	23	Blue	a	0	1.4275	99	99	OAPT	WIEF	999	999	3	650	1	4	1	OAPT	P1	11-Mar-16	24	Blue	d	1	1.1275	99	99	BFZD	UINM	9999	9999	4	650	1	4	1	BFZD	D1	11-Mar-16	25	Blue	z	1	1.1957	99	99	ZOUG	QYXL	9	9	1	650	1	4	1	ZOUG	Z1	11-Mar-16	26	Blue	v	0	0.8945	99	99	UKSF	NRQG	99	99	2	2000	1	4	1	UKSF	K1	11-Mar-16	27	Blue	a	1	1.0126	99	99	LSUA	NKZV	9999	9999	4	650	1	4	1	LSUA	A1	11-Mar-16	28	Blue	a	0	1.3734	99	99	NMJY	EAOC	9	9	1	650	1	4	1	NMJY	N1	11-Mar-16	29	Blue	w	1	1.2577	99	99	UWES	KVCF	99	99	2	650	1	4	1	UWES	W1	11-Mar-16	30	Blue	e	1	1.2233	99	99	EWUQ	TORJ	9	9	1	2000	1	4	1	EWUQ	E1	11-Mar-16	31	Blue	v	1	1.4318	99	99	VJMY	HCUP	9	9	1	650	1	4	1	VJMY	V1	11-Mar-16	32	Blue	v	0	1.2593	99	99	DJIM	SFQV	99	99	2	2000	1	4	1	DJIM	J1	11-Mar-16	1	Red	l	1	3.9227	D	L	DMSH	LRIN	b	r	1	2000	1	6	0	99	991	11-Mar-16	2	Red	b	0	1.4451	J	K	FJPM	IKUA	br	rb	2	650	1	6	0	99	991	11-Mar-16	3	Red	l	0	10.3586	I	H	IZOA	HVWY	b	r	1	2000	1	6	0	99	991	11-Mar-16	4	Red	j	0	3.1037	D	C	UDMW	FCOI	rr	bb	2	2000	1	6	0	99	991	11-Mar-16	5	Red	v	0	3.6238	V	H	GVYP	ZHWB	rb	br	2	650	1	6	0	99	991	11-Mar-16	6	Red	w	0	1.2218	R	N	FKRM	SQNG	rrb	bbr	3	650	1	6	0	99	991	11-Mar-16	7	Red	p	1	1.0453	P	X	PRCY	XNKG	r	b	1	650	1	6	0	99	991	11-Mar-16	8	Red	s	0	1.1008	U	E	SBUA	ZFEO	rbb	brr	3	650	1	6	0	99	991	11-Mar-16	9	Red	b	0	1.7221	F	V	GFMI	DVHE	rb	br	2	650	1	6	0	99	991	11-Mar-16	10	Red	a	0	0.7328	Z	Q	JVXZ	AWSQ	bbbr	rrrb	4	650	1	6	0	99	991	11-Mar-16	11	Red	a	1	1.3579	Q	A	QFTY	AWGJ	b	r	1	2000	1	6	0	99	991	11-Mar-16	12	Red	m	1	1.1367	M	D	MJHP	DOQX	r	b	1	650	1	6	0	99	991	11-Mar-16	13	Red	g	0	0.426	V	B	GEXV	WMTB	rrrr	bbbb	4	2000	1	6	0	99	991	11-Mar-16	14	Red	p	0	0.7055	C	N	RACB	OPNE	bbr	rrb	3	2000	1	6	0	99	991	11-Mar-16	15	Red	c	0	3.03	T	N	KCTF	DBNR	bbb	rrr	3	2000	1	6	0	99	991	11-Mar-16	16	Red	o	0	3.3385	S	Q	JLSE	WIQN	bbb	rrr	3	650	1	6	0	99	991	11-Mar-16	17	Red	p	0	7.7316	W	V	BHZW	ETGV	brrr	rbbb	4	650	1	6	0	99	991	11-Mar-16	18	Red	s	0	3.7842	X	S	XDJC	SBQE	r	b	1	2000	1	6	0	99	991	11-Mar-16	19	Red	e	1	0.474	T	E	RITK	ZDEA	rrb	bbr	3	2000	1	6	0	99	991	11-Mar-16	20	Red	m	0	0.9989	X	V	ZCXI	LUVT	rbb	brr	3	650	1	6	0	99	991	11-Mar-16	21	Red	m	1	1.3602	M	Q	WMNL	HQSG	rr	bb	2	2000	1	6	0	99	991	11-Mar-16	22	Red	r	1	1.3279	C	R	UMSC	EGFR	bbbb	rrrr	4	2000	1	6	0	99	991	11-Mar-16	23	Red	r	0	2.59	B	O	ZBUE	VOCI	rb	br	2	650	1	6	0	99	991	11-Mar-16	24	Red	q	1	1.6229	H	Q	HORE	QVDM	b	r	1	650	1	6	0	99	991	11-Mar-16	25	Red	d	0	1.2656	H	O	JHFB	DOCM	br	rb	2	2000	1	6	0	99	991	11-Mar-16	26	Red	h	0	0.9829	X	W	ZYIX	EUHW	bbbr	rrrb	4	2000	1	6	0	99	991	11-Mar-16	27	Red	x	1	1.1703	X	W	DCVX	HNTW	bbrr	rrbb	4	650	1	6	0	99	991	11-Mar-16	28	Red	t	1	1.0991	N	T	NYMS	TCDZ	b	r	1	650	1	6	0	99	991	11-Mar-16	29	Red	z	0	1.2827	N	J	QSON	URZJ	rbbr	brrb	4	650	1	6	0	99	991	11-Mar-16	30	Red	b	0	0.9195	O	E	IVGO	LNSE	bbrb	rrbr	4	2000	1	6	0	99	991	11-Mar-16	31	Red	p	1	1.4756	P	M	QPDB	RMLF	rr	bb	2	2000	1	6	0	99	991	11-Mar-16	32	Red	j	1	1.2304	K	J	RFKM	YHJQ	bbb	rrr	3	2000	1	6	0	99	991	11-Mar-16	1	Blue	v	1	2.1075	E	V	EMPG	VWXQ	r	b	1	650	1	6	0	99	991	11-Mar-16	2	Blue	g	1	1.1197	O	G	QTOD	LFGR	brr	rbb	3	650	1	6	0	99	991	11-Mar-16	3	Blue	o	0	2.31	D	K	ZFDI	JLKU	bbb	rrr	3	2000	1	6	0	99	991	11-Mar-16	4	Blue	o	0	1.6572	W	A	WHCG	AXNJ	b	r	1	2000	1	6	0	99	991	11-Mar-16	5	Blue	y	0	1.3532	N	X	NBGR	XKAM	r	b	1	650	1	6	0	99	991	11-Mar-16	6	Blue	e	0	2.3108	P	F	ZPVA	EFTU	rb	br	2	2000	1	6	0	99	991	11-Mar-16	7	Blue	j	0	1.1233	N	V	DHCN	JQEV	rrbr	bbrb	4	650	1	6	0	99	991	11-Mar-16	8	Blue	i	1	0.7888	W	I	ZQRW	GJYI	brrr	rbbb	4	2000	1	6	0	99	991	11-Mar-16	9	Blue	j	0	1.7893	W	F	GWXU	YFLP	br	rb	2	650	1	6	0	99	991	11-Mar-16	10	Blue	i	0	1.6126	Z	E	CAJZ	TBIE	bbrr	rrbb	4	650	1	6	0	99	991	11-Mar-16	11	Blue	i	0	2.0073	I	C	IDNT	CXBK	r	b	1	650	1	6	0	99	991	11-Mar-16	12	Blue	a	1	0.7165	Q	A	PQKY	VASN	rr	bb	2	2000	1	6	0	99	991	11-Mar-16	13	Blue	j	1	2.3674	J	U	JMDQ	UBKL	b	r	1	650	1	6	0	99	991	11-Mar-16	14	Blue	k	0	0.9295	G	V	KUGY	SOVP	brb	rbr	3	650	1	6	0	99	991	11-Mar-16	15	Blue	j	1	0.8351	W	J	NWAO	UJBY	rr	bb	2	650	1	6	0	99	991	11-Mar-16	16	Blue	b	0	2.7398	E	S	VAEK	YFST	brb	rbr	3	650	1	6	0	99	991	11-Mar-16	17	Blue	m	1	1.4347	M	Z	NKMW	YXZJ	bbb	rrr	3	2000	1	6	0	99	991	11-Mar-16	18	Blue	m	0	2.8442	V	W	VRTE	WJSZ	r	b	1	2000	1	6	0	99	991	11-Mar-16	19	Blue	r	1	3.5182	I	R	UCID	EFRB	rbr	brb	3	2000	1	6	0	99	991	11-Mar-16	20	Blue	j	1	1.2658	Z	J	GXZM	DNJI	rbr	brb	3	650	1	6	0	99	991	11-Mar-16	21	Blue	t	1	0.9358	V	T	VIPM	TEXL	r	b	1	2000	1	6	0	99	991	11-Mar-16	22	Blue	w	0	1.0504	K	B	RKCT	GBXE	rb	br	2	650	1	6	0	99	991	11-Mar-16	23	Blue	l	0	1.0028	M	Q	TMCE	LQGA	rb	br	2	650	1	6	0	99	991	11-Mar-16	24	Blue	s	0	1.5098	E	F	GUEW	NSFO	rrb	bbr	3	2000	1	6	0	99	991	11-Mar-16	25	Blue	r	1	1.1278	K	R	EOIK	ZVUR	bbrr	rrbb	4	650	1	6	0	99	991	11-Mar-16	26	Blue	r	0	2.0242	P	A	MSHP	TFRA	bbrr	rrbb	4	2000	1	6	0	99	991	11-Mar-16	27	Blue	i	0	3.0206	X	I	XOCL	IBAV	b	r	1	2000	1	6	0	99	991	11-Mar-16	28	Blue	t	1	1.2106	M	T	WAPM	SYQT	rbrr	brbb	4	2000	1	6	0	99	991	11-Mar-16	29	Blue	i	1	2.2843	I	Q	UIMJ	DQEH	bb	rr	2	2000	1	6	0	99	991	11-Mar-16	30	Blue	m	1	1.4996	M	G	FXIM	WYKG	rbbb	brrr	4	650	1	6	0	99	991	11-Mar-16	31	Blue	f	0	1.2628	K	L	CSYK	OWFL	rbrb	brbr	4	2000	1	6	0	99	991	11-Mar-16	32	Blue	m	1	1.0325	M	K	NMHL	YKTU	bb	rr	2	2000	1	6	0	99	991	11-Mar-16	1	Red	a	0	1.5338	N	O	ZGFN	MSDO	rbrb	brbr	4	650	1	6	0	99	991	11-Mar-16	2	Red	q	0	1.1723	W	X	WASR	XQIM	r	b	1	2000	1	6	0	99	991	11-Mar-16	3	Red	h	0	1.1599	A	O	HAQI	MOGX	rb	br	2	2000	1	6	0	99	991	11-Mar-16	4	Red	p	1	0.8947	P	Z	RWOP	YFHZ	brrr	rbbb	4	2000	1	6	0	99	991	11-Mar-16	5	Red	j	0	1.3013	M	O	YJML	WTOK	brr	rbb	3	650	1	6	0	99	991	11-Mar-16	6	Red	b	0	0.9339	K	L	NOKF	SPLQ	brr	rbb	3	2000	1	6	0	99	991	11-Mar-16	7	Red	r	1	1.1393	D	R	LIDS	BQRN	bbb	rrr	3	2000	1	6	0	99	991	11-Mar-16	8	Red	l	0	3.8943	F	H	FIUN	HLVG	b	r	1	650	1	6	0	99	991	11-Mar-16	9	Red	h	1	1.4259	M	H	MATX	HCRW	b	r	1	2000	1	6	0	99	991	11-Mar-16	10	Red	h	1	0.8901	D	H	DQPU	HRVW	b	r	1	650	1	6	0	99	991	11-Mar-16	11	Red	b	0	1.1117	H	N	VTHO	KRNW	brb	rbr	3	650	1	6	0	99	991	11-Mar-16	12	Red	d	0	1.7421	U	A	DUOJ	VAKF	rr	bb	2	2000	1	6	0	99	991	11-Mar-16	13	Red	b	1	1.0034	F	B	FRTU	BEWZ	b	r	1	650	1	6	0	99	991	11-Mar-16	14	Red	i	1	1.631	J	I	WRJK	SAID	rrb	bbr	3	2000	1	6	0	99	991	11-Mar-16	15	Red	b	0	0.9875	L	A	QPVL	WOZA	rbrb	brbr	4	650	1	6	0	99	991	11-Mar-16	16	Red	f	1	0.9814	V	F	HVRB	CFTE	rb	br	2	650	1	6	0	99	991	11-Mar-16	17	Red	b	0	0.77	H	C	VFPH	EBUC	brbr	rbrb	4	650	1	6	0	99	991	11-Mar-16	18	Red	w	0	2.6493	C	Z	CEBT	ZGAK	r	b	1	650	1	6	0	99	991	11-Mar-16	19	Red	q	0	2.0117	M	P	OCXM	NRBP	rbbr	brrb	4	650	1	6	0	99	991	11-Mar-16	20	Red	z	0	0.997	I	G	JRHI	DZUG	bbrr	rrbb	4	2000	1	6	0	99	991	11-Mar-16	21	Red	w	0	2.8942	R	D	RNBP	DOLU	r	b	1	2000	1	6	0	99	991	11-Mar-16	22	Red	w	0	1.332	T	U	WTNV	QURF	rr	bb	2	650	1	6	0	99	991	11-Mar-16	23	Red	l	0	1.0679	R	F	JERP	LNFO	brr	rbb	3	2000	1	6	0	99	991	11-Mar-16	24	Red	b	1	1.3064	B	Z	MEBK	PNZU	rbr	brb	3	650	1	6	0	99	991	11-Mar-16	25	Red	m	0	3.0588	T	M	ATHR	GMUC	br	rb	2	2000	1	6	0	99	991	11-Mar-16	26	Red	g	0	1.0194	W	H	TWIB	GHRU	bb	rr	2	650	1	6	0	99	991	11-Mar-16	27	Red	q	0	1.7994	H	B	EYQH	XCWB	rrrr	bbbb	4	2000	1	6	0	99	991	11-Mar-16	28	Red	e	0	2.4681	P	G	PVWB	GHSX	b	r	1	2000	1	6	0	99	991	11-Mar-16	29	Red	b	0	0.8504	Y	P	AWYX	BFPV	rbr	brb	3	650	1	6	0	99	991	11-Mar-16	30	Red	a	1	1.7413	P	A	UXGP	FEOA	bbbb	rrrr	4	2000	1	6	0	99	991	11-Mar-16	31	Red	p	1	1.3715	P	V	BPWO	YVDM	rr	bb	2	650	1	6	0	99	991	11-Mar-16	32	Red	p	0	1.5933	O	P	JORI	ZPTW	rr	bb	2	2000	1	6	0	99	991	11-Mar-16	1	Blue	e	0	1.3008	V	N	OTVK	FENP	rrb	bbr	3	650	1	6	0	99	991	11-Mar-16	2	Blue	b	0	1.4128	Y	L	BSYU	IFLG	rrb	bbr	3	2000	1	6	0	99	991	11-Mar-16	3	Blue	b	0	1.2741	Z	F	UWZI	ERFX	rbb	brr	3	650	1	6	0	99	991	11-Mar-16	4	Blue	w	0	1.089	A	X	EAVD	RXTY	rb	br	2	2000	1	6	0	99	991	11-Mar-16	5	Blue	y	0	2.3222	B	I	YADB	NLOI	bbrr	rrbb	4	2000	1	6	0	99	991	11-Mar-16	6	Blue	w	1	1.2365	W	B	QWKM	NBAU	rb	br	2	650	1	6	0	99	991	11-Mar-16	7	Blue	b	1	1.0207	B	T	UBGV	KTLZ	bb	rr	2	650	1	6	0	99	991	11-Mar-16	8	Blue	b	0	5.5792	W	H	WNIS	HPOV	b	r	1	650	1	6	0	99	991	11-Mar-16	9	Blue	c	1	0.9794	C	M	CEJN	MODQ	b	r	1	650	1	6	0	99	991	11-Mar-16	10	Blue	g	1	0.9488	G	V	GHBD	VFEO	b	r	1	650	1	6	0	99	991	11-Mar-16	11	Blue	a	1	0.9283	A	O	VEAI	UYOS	brb	rbr	3	2000	1	6	0	99	991	11-Mar-16	12	Blue	h	1	1.1847	J	H	VINJ	RLTH	rbrr	brbb	4	2000	1	6	0	99	991	11-Mar-16	13	Blue	p	1	0.9344	A	P	GTZA	HIKP	rbrr	brbb	4	650	1	6	0	99	991	11-Mar-16	14	Blue	i	0	1.1227	H	Z	XMHT	VIZN	rrb	bbr	3	650	1	6	0	99	991	11-Mar-16	15	Blue	t	1	1.0136	R	T	SRGY	FTLW	rr	bb	2	650	1	6	0	99	991	11-Mar-16	16	Blue	t	1	3.2547	T	F	BTRC	IFQK	rb	br	2	2000	1	6	0	99	991	11-Mar-16	17	Blue	z	0	1.6829	N	F	SNRB	ZFTY	br	rb	2	2000	1	6	0	99	991	11-Mar-16	18	Blue	s	1	2.3317	S	Q	SJLG	QRUD	b	r	1	2000	1	6	0	99	991	11-Mar-16	19	Blue	g	1	1.4497	S	G	QDNS	RVFG	rrrr	bbbb	4	2000	1	6	0	99	991	11-Mar-16	20	Blue	k	0	1.3566	T	J	QUTB	DKJX	rrb	bbr	3	650	1	6	0	99	991	11-Mar-16	21	Blue	t	1	1.8182	T	W	DTCU	ZWFS	bb	rr	2	2000	1	6	0	99	991	11-Mar-16	22	Blue	w	1	0.5904	Z	W	CVZI	XJWN	rbr	brb	3	2000	1	6	0	99	991	11-Mar-16	23	Blue	q	1	2.397	G	Q	GABO	QCDJ	r	b	1	2000	1	6	0	99	991	11-Mar-16	24	Blue	p	0	1.1898	D	I	TDCB	PIMG	rr	bb	2	650	1	6	0	99	991	11-Mar-16	25	Blue	e	0	1.0839	W	Y	LBVW	EMJY	rbbb	brrr	4	2000	1	6	0	99	991	11-Mar-16	26	Blue	e	0	0.9563	U	O	SWBU	EJGO	rbrb	brbr	4	650	1	6	0	99	991	11-Mar-16	27	Blue	o	0	1.2011	U	Q	VSUG	HOQJ	rrr	bbb	3	2000	1	6	0	99	991	11-Mar-16	28	Blue	j	1	1.5381	J	O	JYKT	ORUD	b	r	1	650	1	6	0	99	991	11-Mar-16	29	Blue	k	1	0.9344	K	D	KCPS	DGXH	b	r	1	2000	1	6	0	99	991	11-Mar-16	30	Blue	k	0	1.5492	Y	D	QCKY	PBOD	bbbr	rrrb	4	650	1	6	0	99	991	11-Mar-16	31	Blue	d	0	1.2042	O	L	NEUO	DGFL	rbbb	brrr	4	650	1	6	0	99	991	11-Mar-16	32	Blue	c	0	4.3267	D	G	DETF	GHRJ	b	r	1	2000	1	6	0	99	993	11-Mar-16	1	Red	j	0	0.9783	99	99	JYTH	GUKL	9999	9999	4	650	1	3	1	JYTH	H3	11-Mar-16	2	Red	u	1	0.8223	99	99	XEUN	YPHD	999	999	3	2000	1	3	1	XEUN	U3	11-Mar-16	3	Red	m	0	0.8538	99	99	MKFU	YAXB	99	99	2	650	1	3	1	MKFU	K3	11-Mar-16	4	Red	h	0	1.1672	99	99	HLMF	UGQC	9999	9999	4	650	1	3	1	HLMF	F3	11-Mar-16	5	Red	f	1	0.8336	99	99	FLEI	YNBS	9	9	1	650	1	3	1	FLEI	F3	11-Mar-16	6	Red	q	0	2.3855	99	99	QWCH	BPJO	999	999	3	650	1	3	1	QWCH	C3	11-Mar-16	7	Red	r	1	1.3755	99	99	XVPR	LDSB	9999	9999	4	2000	1	3	1	XVPR	R3	11-Mar-16	8	Red	q	0	1.1394	99	99	QEBN	JGSP	999	999	3	650	1	3	1	QEBN	B3	11-Mar-16	9	Red	e	1	1.0532	99	99	OCLE	DMXR	9999	9999	4	2000	1	3	1	OCLE	E3	11-Mar-16	10	Red	c	1	0.9633	99	99	CQYI	FBLX	9	9	1	2000	1	3	1	CQYI	C3	11-Mar-16	11	Red	f	0	0.8544	99	99	FJOP	KCUT	99	99	2	650	1	3	1	FJOP	J3	11-Mar-16	12	Red	v	1	0.9954	99	99	VWTX	RMCE	9	9	1	2000	1	3	1	VWTX	V3	11-Mar-16	13	Red	o	0	0.9871	99	99	PNXZ	IRGL	9	9	1	650	1	3	1	PNXZ	P3	11-Mar-16	14	Red	s	1	1.0281	99	99	ASFZ	WKVM	99	99	2	650	1	3	1	ASFZ	S3	11-Mar-16	15	Red	t	1	1.0284	99	99	TQHZ	XKLV	9	9	1	2000	1	3	1	TQHZ	T3	11-Mar-16	16	Red	g	0	0.8383	99	99	GJBP	DRXM	999	999	3	650	1	3	1	GJBP	B3	11-Mar-16	17	Red	e	1	1.12	99	99	QZOE	MSYB	9999	9999	4	2000	1	3	1	QZOE	E3	11-Mar-16	18	Red	d	1	1.0208	99	99	DZXY	PJBQ	9	9	1	2000	1	3	1	DZXY	D3	11-Mar-16	19	Red	r	0	0.9597	99	99	CWDT	LMPR	999	999	3	2000	1	3	1	CWDT	D3	11-Mar-16	20	Red	o	1	0.9661	99	99	UYAO	DCFM	9999	9999	4	2000	1	3	1	UYAO	O3	11-Mar-16	21	Red	b	0	1.081	99	99	BMWH	TQJL	99	99	2	650	1	3	1	BMWH	M3	11-Mar-16	22	Red	v	1	1.295	99	99	TVGS	WDYP	99	99	2	2000	1	3	1	TVGS	V3	11-Mar-16	23	Red	q	1	1.4043	99	99	QBJV	WLIX	9	9	1	650	1	3	1	QBJV	Q3	11-Mar-16	24	Red	n	0	1.0175	99	99	NFAO	HWQB	999	999	3	650	1	3	1	NFAO	A3	11-Mar-16	25	Red	k	1	0.8909	99	99	GZKH	LISE	999	999	3	2000	1	3	1	GZKH	K3	11-Mar-16	26	Red	h	1	0.9785	99	99	NHXF	YRSJ	99	99	2	2000	1	3	1	NHXF	H3	11-Mar-16	27	Red	g	1	1.0764	99	99	MGFH	TIBA	99	99	2	2000	1	3	1	MGFH	G3	11-Mar-16	28	Red	h	0	1.8936	99	99	HGAQ	MIYX	9999	9999	4	650	1	3	1	HGAQ	Q3	11-Mar-16	29	Red	i	1	1.1303	99	99	PEIR	BAMD	999	999	3	2000	1	3	1	PEIR	I3	11-Mar-16	30	Red	i	1	1.4877	99	99	HIOV	GBNY	99	99	2	2000	1	3	1	HIOV	I3	11-Mar-16	31	Red	t	1	1.0705	99	99	TYKI	EPUM	9	9	1	650	1	3	1	TYKI	T3	11-Mar-16	32	Red	z	1	1.1511	99	99	BYMZ	NDPU	9999	9999	4	650	1	3	1	BYMZ	Z3	11-Mar-16	1	Blue	o	1	1.9093	99	99	OYID	BQHS	9	9	1	650	1	3	1	OYID	O3	11-Mar-16	2	Blue	m	0	0.8783	99	99	MRKL	YESU	99	99	2	650	1	3	1	MRKL	R3	11-Mar-16	3	Blue	b	1	0.8343	99	99	BGKX	ZEUC	9	9	1	650	1	3	1	BGKX	B3	11-Mar-16	4	Blue	k	1	0.817	99	99	KMXW	DUHE	9	9	1	2000	1	3	1	KMXW	K3	11-Mar-16	5	Blue	c	1	1.0357	99	99	ZGKC	WTNB	9999	9999	4	2000	1	3	1	ZGKC	C3	11-Mar-16	6	Blue	k	0	3.2482	99	99	EYMX	ZFSK	9999	9999	4	2000	1	3	1	EYMX	X3	11-Mar-16	7	Blue	z	1	1.0204	99	99	WNZS	RGLU	999	999	3	2000	1	3	1	WNZS	Z3	11-Mar-16	8	Blue	y	1	1.6462	99	99	BYPD	FXCI	99	99	2	650	1	3	1	BYPD	Y3	11-Mar-16	9	Blue	u	1	0.8978	99	99	TUNX	AMFJ	99	99	2	2000	1	3	1	TUNX	U3	11-Mar-16	10	Blue	m	1	0.9496	99	99	TMWF	GSEZ	99	99	2	650	1	3	1	TMWF	M3	11-Mar-16	11	Blue	m	0	0.7148	99	99	MHPV	BWNS	999	999	3	650	1	3	1	MHPV	P3	11-Mar-16	12	Blue	x	1	0.9724	99	99	XFQL	EUKI	9	9	1	2000	1	3	1	XFQL	X3	11-Mar-16	13	Blue	q	0	0.8802	99	99	QFZY	NXBJ	999	999	3	650	1	3	1	QFZY	Z3	11-Mar-16	14	Blue	p	1	1.1481	99	99	PLSA	UHYK	9	9	1	650	1	3	1	PLSA	P3	11-Mar-16	15	Blue	t	1	0.804	99	99	AGWT	ESML	9999	9999	4	2000	1	3	1	AGWT	T3	11-Mar-16	16	Blue	t	1	0.7653	99	99	WZTI	QHJE	999	999	3	2000	1	3	1	WZTI	T3	11-Mar-16	17	Blue	b	0	0.787	99	99	LDYC	QSPO	9999	9999	4	2000	1	3	1	LDYC	C3	11-Mar-16	18	Blue	b	0	2.1662	99	99	BDUW	VHCQ	9999	9999	4	650	1	3	1	BDUW	W3	11-Mar-16	19	Blue	k	1	0.801	99	99	QGKD	IJXP	999	999	3	2000	1	3	1	QGKD	K3	11-Mar-16	20	Blue	j	1	0.7459	99	99	JCXK	PAOI	9	9	1	2000	1	3	1	JCXK	J3	11-Mar-16	21	Blue	o	0	1.7157	99	99	IBNF	SOQY	99	99	2	650	1	3	1	IBNF	B3	11-Mar-16	22	Blue	j	1	0.8694	99	99	ZJEX	SDHO	99	99	2	2000	1	3	1	ZJEX	J3	11-Mar-16	23	Blue	e	1	1.4679	99	99	JEXV	GAYO	99	99	2	2000	1	3	1	JEXV	E3	11-Mar-16	24	Blue	r	1	0.9391	99	99	ROLB	PENI	9	9	1	2000	1	3	1	ROLB	R3	11-Mar-16	25	Blue	m	0	7.2399	99	99	MTPB	DFEL	999	999	3	650	1	3	1	MTPB	P3	11-Mar-16	26	Blue	e	0	2.0067	99	99	SMRK	FULE	999	999	3	650	1	3	1	SMRK	R3	11-Mar-16	27	Blue	u	0	1.4722	99	99	UEVF	YIDQ	9999	9999	4	650	1	3	1	UEVF	F3	11-Mar-16	28	Blue	e	0	1.2339	99	99	EJDB	RXFU	9999	9999	4	650	1	3	1	EJDB	B3	11-Mar-16	29	Blue	d	1	1.1578	99	99	HUDV	MBYN	999	999	3	2000	1	3	1	HUDV	D3	11-Mar-16	30	Blue	i	0	1.1074	99	99	IEQD	GBYW	9999	9999	4	650	1	3	1	IEQD	D3	11-Mar-16	31	Blue	f	0	1.562	99	99	FCVX	IEKT	99	99	2	2000	1	3	1	FCVX	C3	11-Mar-16	32	Blue	w	1	1.5114	99	99	WJOR	PZGD	9	9	1	650	1	3	1	WJOR	W3	11-Mar-16	1	Red	w	1	0.9091	99	99	WJEA	DBSX	9	9	1	650	1	3	1	WJEA	W3	11-Mar-16	2	Red	s	0	1.4735	99	99	SIQN	OKXF	99	99	2	2000	1	3	1	SIQN	I3	11-Mar-16	3	Red	w	0	1.1888	99	99	WZBF	YONQ	9999	9999	4	650	1	3	1	WZBF	F3	11-Mar-16	4	Red	w	1	1.1112	99	99	EWTC	GNOD	99	99	2	650	1	3	1	EWTC	W3	11-Mar-16	5	Red	l	1	1.3056	99	99	EHXL	POBS	9999	9999	4	2000	1	3	1	EHXL	L3	11-Mar-16	6	Red	r	1	1.2354	99	99	ZNBR	WGEI	9999	9999	4	2000	1	3	1	ZNBR	R3	11-Mar-16	7	Red	m	1	1.2003	99	99	ZJMU	XHLE	999	999	3	2000	1	3	1	ZJMU	M3	11-Mar-16	8	Red	p	0	1.0355	99	99	PKJQ	WGET	9999	9999	4	650	1	3	1	PKJQ	Q3	11-Mar-16	9	Red	a	0	1.4055	99	99	YAXE	POWU	999	999	3	650	1	3	1	YAXE	X3	11-Mar-16	10	Red	x	0	1.4031	99	99	XLHV	ZWCE	9999	9999	4	650	1	3	1	XLHV	V3	11-Mar-16	11	Red	y	0	1.0687	99	99	YHMO	PEAC	99	99	2	650	1	3	1	YHMO	H3	11-Mar-16	12	Red	a	1	1.1562	99	99	ACJW	ZOMN	9	9	1	650	1	3	1	ACJW	A3	11-Mar-16	13	Red	x	0	1.0833	99	99	DXOP	JGSC	9999	9999	4	2000	1	3	1	DXOP	P3	11-Mar-16	14	Red	u	1	1.1241	99	99	BIUG	TLJW	999	999	3	2000	1	3	1	BIUG	U3	11-Mar-16	15	Red	o	1	1.3832	99	99	OHCB	ZFNS	9	9	1	650	1	3	1	OHCB	O3	11-Mar-16	16	Red	g	0	1.1167	99	99	GEKB	AOMN	999	999	3	650	1	3	1	GEKB	K3	11-Mar-16	17	Red	k	1	0.953	99	99	KSRP	UQWJ	9	9	1	2000	1	3	1	KSRP	K3	11-Mar-16	18	Red	c	1	0.9871	99	99	CJLF	WYUI	9	9	1	2000	1	3	1	CJLF	C3	11-Mar-16	19	Red	y	1	1.115	99	99	YZAK	NEOP	9	9	1	2000	1	3	1	YZAK	Y3	11-Mar-16	20	Red	f	0	1.2003	99	99	FZBP	LITK	99	99	2	650	1	3	1	FZBP	Z3	11-Mar-16	21	Red	a	1	0.968	99	99	LFGA	XWHV	9999	9999	4	2000	1	3	1	LFGA	A3	11-Mar-16	22	Red	p	0	1.2348	99	99	JPVM	UXIW	999	999	3	650	1	3	1	JPVM	V3	11-Mar-16	23	Red	i	1	1.2676	99	99	IOJX	URNC	9	9	1	2000	1	3	1	IOJX	I3	11-Mar-16	24	Red	h	1	1.2272	99	99	PHVY	EBKA	99	99	2	2000	1	3	1	PHVY	H3	11-Mar-16	25	Red	e	1	1.1267	99	99	KGEC	FSZM	999	999	3	2000	1	3	1	KGEC	E3	11-Mar-16	26	Red	s	1	1.5941	99	99	SFYW	JELU	9	9	1	650	1	3	1	SFYW	S3	11-Mar-16	27	Red	z	0	1.168	99	99	ZODG	TLHU	999	999	3	650	1	3	1	ZODG	D3	11-Mar-16	28	Red	r	0	1.079	99	99	RKSG	LHEJ	9999	9999	4	650	1	3	1	RKSG	G3	11-Mar-16	29	Red	j	1	1.2158	99	99	WEJB	OXTY	999	999	3	2000	1	3	1	WEJB	J3	11-Mar-16	30	Red	g	1	1.251	99	99	RGZF	ALCP	99	99	2	2000	1	3	1	RGZF	G3	11-Mar-16	31	Red	z	0	1.1464	99	99	ZWXF	UHEP	99	99	2	650	1	3	1	ZWXF	W3	11-Mar-16	32	Red	h	1	1.2319	99	99	ZHDG	WRON	99	99	2	2000	1	3	1	ZHDG	H3	11-Mar-16	1	Blue	p	0	0.8341	99	99	PMQF	NKRE	999	999	3	650	1	3	1	PMQF	Q3	11-Mar-16	2	Blue	b	0	1.0754	99	99	BJIH	LEAC	9999	9999	4	650	1	3	1	BJIH	H3	11-Mar-16	3	Blue	m	0	1.2065	99	99	ANMF	BVHD	9999	9999	4	2000	1	3	1	ANMF	F3	11-Mar-16	4	Blue	d	0	1.618	99	99	DXKU	RVYO	999	999	3	650	1	3	1	DXKU	K3	11-Mar-16	5	Blue	m	0	2.189	99	99	IDQY	MNPK	9	9	1	2000	1	3	1	IDQY	I3	11-Mar-16	6	Blue	v	0	1.7498	99	99	KRIQ	BSTF	999	999	3	650	1	3	1	KRIQ	I3	11-Mar-16	7	Blue	d	0	1.1765	99	99	DOLS	NCFI	999	999	3	2000	1	3	1	DOLS	L3	11-Mar-16	8	Blue	b	1	1.1404	99	99	ZBLU	NWET	99	99	2	2000	1	3	1	ZBLU	B3	11-Mar-16	9	Blue	b	1	1.0197	99	99	TYGB	AKZS	9999	9999	4	2000	1	3	1	TYGB	B3	11-Mar-16	10	Blue	g	1	1.0231	99	99	JMGB	WQDA	999	999	3	2000	1	3	1	JMGB	G3	11-Mar-16	11	Blue	s	0	1.2254	99	99	SQDG	VEMT	9999	9999	4	650	1	3	1	SQDG	G3	11-Mar-16	12	Blue	a	0	1.0282	99	99	AGJV	YKQT	9999	9999	4	650	1	3	1	AGJV	V3	11-Mar-16	13	Blue	y	0	1.0924	99	99	YLDK	ZOXB	99	99	2	650	1	3	1	YLDK	L3	11-Mar-16	14	Blue	y	0	1.3375	99	99	YTPJ	CNWM	99	99	2	650	1	3	1	YTPJ	T3	11-Mar-16	15	Blue	e	0	1.1035	99	99	EOKI	RLNG	99	99	2	650	1	3	1	EOKI	O3	11-Mar-16	16	Blue	e	1	1.5485	99	99	EVUC	KGFQ	9	9	1	650	1	3	1	EVUC	E3	11-Mar-16	17	Blue	i	0	1.0908	99	99	ICLR	KWNU	999	999	3	650	1	3	1	ICLR	L3	11-Mar-16	18	Blue	p	0	1.1132	99	99	PAZQ	DVWB	99	99	2	650	1	3	1	PAZQ	A3	11-Mar-16	19	Blue	l	1	1.279	99	99	TLCZ	NVFB	99	99	2	2000	1	3	1	TLCZ	L3	11-Mar-16	20	Blue	l	1	1.8778	99	99	LWYQ	EVHM	9	9	1	2000	1	3	1	LWYQ	L3	11-Mar-16	21	Blue	i	0	1.3791	99	99	ILFU	AWBP	9999	9999	4	650	1	3	1	ILFU	U3	11-Mar-16	22	Blue	x	1	1.2755	99	99	ZKVX	RYCL	9999	9999	4	2000	1	3	1	ZKVX	X3	11-Mar-16	23	Blue	u	1	1.0932	99	99	WEUO	SGXH	999	999	3	2000	1	3	1	WEUO	U3	11-Mar-16	24	Blue	z	1	1.7296	99	99	ZLNG	HXWV	9	9	1	650	1	3	1	ZLNG	Z3	11-Mar-16	25	Blue	k	1	1.1046	99	99	KFAI	ZURO	9	9	1	2000	1	3	1	KFAI	K3	11-Mar-16	26	Blue	e	1	1.4582	99	99	BTHE	RIOF	9999	9999	4	2000	1	3	1	BTHE	E3	11-Mar-16	27	Blue	p	0	1.7238	99	99	OKAN	LTPV	99	99	2	2000	1	3	1	OKAN	K3	11-Mar-16	28	Blue	s	1	1.349	99	99	ESKJ	VMIW	99	99	2	2000	1	3	1	ESKJ	S3	11-Mar-16	29	Blue	o	1	1.297	99	99	ONPG	FAZB	9	9	1	650	1	3	1	ONPG	O3	11-Mar-16	30	Blue	q	1	1.6308	99	99	QYLN	URMT	9	9	1	650	1	3	1	QYLN	Q3	11-Mar-16	31	Blue	p	1	1.0989	99	99	SQPG	JFYI	999	999	3	2000	1	3	1	SQPG	P3	11-Mar-16	32	Blue	a	1	1.3294	99	99	AZPX	FJRT	9	9	1	2000	1	3	1	AZPX	A3	11-Mar-16	1	Red	g	1	1.3523	A	G	USBA	RIVG	bbrb	rrbr	4	2000	1	6	0	99	993	11-Mar-16	2	Red	a	1	1.0802	A	J	EBIA	ZDLJ	rbbr	brrb	4	2000	1	6	0	99	993	11-Mar-16	3	Red	m	0	1.2395	R	A	JRBQ	VAPY	rr	bb	2	650	1	6	0	99	993	11-Mar-16	4	Red	x	1	1.0506	Z	X	RTZY	UBXD	rbb	brr	3	2000	1	6	0	99	993	11-Mar-16	5	Red	v	1	1.3728	V	W	GNLV	HMPW	bbrr	rrbb	4	2000	1	6	0	99	993	11-Mar-16	6	Red	e	1	1.1939	G	E	VGIR	ZEFB	bb	rr	2	650	1	6	0	99	993	11-Mar-16	7	Red	v	0	1.2368	Q	R	VPQE	DKRL	rbb	brr	3	650	1	6	0	99	993	11-Mar-16	8	Red	c	0	3.3747	K	V	FSNK	MCAV	bbrb	rrbr	4	650	1	6	0	99	993	11-Mar-16	9	Red	u	1	1.3403	J	U	JHIA	UFXB	b	r	1	650	1	6	0	99	993	11-Mar-16	10	Red	c	0	1.8029	I	M	QGXI	NCKM	bbrb	rrbr	4	650	1	6	0	99	993	11-Mar-16	11	Red	g	1	1.5118	G	N	UGPQ	ENYK	rr	bb	2	2000	1	6	0	99	993	11-Mar-16	12	Red	c	1	1.1359	C	U	ZCOK	EUAG	br	rb	2	2000	1	6	0	99	993	11-Mar-16	13	Red	w	1	1.7079	T	W	UTZA	RWYD	rb	br	2	650	1	6	0	99	993	11-Mar-16	14	Red	g	1	1.1117	G	C	MJGX	OKCU	brr	rbb	3	2000	1	6	0	99	993	11-Mar-16	15	Red	z	1	1.5157	Y	Z	IYLX	JZKN	rb	br	2	2000	1	6	0	99	993	11-Mar-16	16	Red	l	1	1.6913	L	U	LATW	UIRF	r	b	1	650	1	6	0	99	993	11-Mar-16	17	Red	j	0	3.0119	R	G	MJRE	IDGX	brr	rbb	3	650	1	6	0	99	993	11-Mar-16	18	Red	r	0	1.2381	A	O	RAGX	ZOMC	rr	bb	2	650	1	6	0	99	993	11-Mar-16	19	Red	m	1	1.3793	X	M	INAX	BDFM	rbrb	brbr	4	2000	1	6	0	99	993	11-Mar-16	20	Red	n	1	1.2857	X	N	XKBT	NPCJ	b	r	1	2000	1	6	0	99	993	11-Mar-16	21	Red	x	1	1.2454	Z	X	ZTNB	XJRE	b	r	1	2000	1	6	0	99	993	11-Mar-16	22	Red	h	1	1.2603	M	H	MOUA	HPRI	b	r	1	2000	1	6	0	99	993	11-Mar-16	23	Red	t	0	2.8547	A	W	DVIA	FTLW	rbbb	brrr	4	650	1	6	0	99	993	11-Mar-16	24	Red	x	1	3.2463	C	X	PCVJ	UXTY	rb	br	2	2000	1	6	0	99	993	11-Mar-16	25	Red	w	1	3.145	Z	W	ZKSH	WOTN	b	r	1	2000	1	6	0	99	993	11-Mar-16	26	Red	a	0	1.1042	J	G	OPJK	ATGW	brr	rbb	3	650	1	6	0	99	993	11-Mar-16	27	Red	f	1	1.2786	J	F	RAWJ	LVUF	bbbb	rrrr	4	650	1	6	0	99	993	11-Mar-16	28	Red	b	1	1.3334	B	N	BJKR	NYOD	r	b	1	650	1	6	0	99	993	11-Mar-16	29	Red	z	1	1.2729	B	Z	BUAQ	ZCKI	b	r	1	650	1	6	0	99	993	11-Mar-16	30	Red	l	1	1.2742	J	L	HAJR	ZGLK	rrb	bbr	3	2000	1	6	0	99	993	11-Mar-16	31	Red	s	0	2.9863	C	L	UECM	SQLA	bbr	rrb	3	650	1	6	0	99	993	11-Mar-16	32	Red	f	1	1.369	V	F	YKVI	THFO	brb	rbr	3	2000	1	6	0	99	993	11-Mar-16	1	Blue	a	1	1.0803	A	O	PRHA	ZILO	rbbb	brrr	4	2000	1	6	0	99	993	11-Mar-16	2	Blue	y	1	1.2276	R	Y	RKDU	YVAO	r	b	1	650	1	6	0	99	993	11-Mar-16	3	Blue	i	0	1.0544	O	N	IOJS	KNTC	bb	rr	2	650	1	6	0	99	993	11-Mar-16	4	Blue	w	1	1.6239	V	W	NLKV	HPCW	rbrr	brbb	4	650	1	6	0	99	993	11-Mar-16	5	Blue	e	1	1.1559	E	W	DERV	NWZJ	bb	rr	2	2000	1	6	0	99	993	11-Mar-16	6	Blue	w	1	1.2685	A	W	AHJL	WSQX	r	b	1	650	1	6	0	99	993	11-Mar-16	7	Blue	a	1	1.1103	Q	A	KQVE	NAWY	rr	bb	2	2000	1	6	0	99	993	11-Mar-16	8	Blue	b	0	1.6917	X	T	BZXM	CPTJ	bbr	rrb	3	650	1	6	0	99	993	11-Mar-16	9	Blue	k	0	1.1662	W	N	GFWI	XKNU	rrb	bbr	3	2000	1	6	0	99	993	11-Mar-16	10	Blue	k	1	1.2206	E	K	XOEG	CRKU	brr	rbb	3	2000	1	6	0	99	993	11-Mar-16	11	Blue	d	1	1.3018	Y	D	SYRL	TDCW	rr	bb	2	2000	1	6	0	99	993	11-Mar-16	12	Blue	i	1	1.1577	H	I	XWHZ	RMIT	rbr	brb	3	650	1	6	0	99	993	11-Mar-16	13	Blue	f	1	1.037	D	F	LTVD	ZCHF	bbbr	rrrb	4	2000	1	6	0	99	993	11-Mar-16	14	Blue	f	0	1.992	I	F	QPIH	JCFN	rbb	brr	3	2000	1	6	0	99	993	11-Mar-16	15	Blue	f	1	1.1312	C	F	VIXC	LBDF	bbbr	rrrb	4	2000	1	6	0	99	993	11-Mar-16	16	Blue	y	0	1.1025	M	U	YMAZ	LUWG	bb	rr	2	650	1	6	0	99	993	11-Mar-16	17	Blue	u	1	1.4506	U	J	UPLD	JFCO	b	r	1	2000	1	6	0	99	993	11-Mar-16	18	Blue	m	0	1.4239	E	D	MNLE	VROD	brrb	rbbr	4	650	1	6	0	99	993	11-Mar-16	19	Blue	a	1	1.1767	O	A	OMHI	AKER	r	b	1	2000	1	6	0	99	993	11-Mar-16	20	Blue	q	1	1.4111	T	Q	TSIE	QPGM	r	b	1	2000	1	6	0	99	993	11-Mar-16	21	Blue	k	0	1.101	G	P	CGVD	KPXM	rr	bb	2	650	1	6	0	99	993	11-Mar-16	22	Blue	z	0	1.1236	E	Y	HIEC	GZYA	brb	rbr	3	650	1	6	0	99	993	11-Mar-16	23	Blue	v	1	1.2154	V	B	VWFJ	BXHG	b	r	1	2000	1	6	0	99	993	11-Mar-16	24	Blue	k	1	0.9396	G	K	SLGH	DMKJ	rrr	bbb	3	2000	1	6	0	99	993	11-Mar-16	25	Blue	v	1	1.278	D	V	FDMN	KVTZ	rr	bb	2	2000	1	6	0	99	993	11-Mar-16	26	Blue	c	0	1.2405	T	K	ZBVT	MUCK	rrrb	bbbr	4	650	1	6	0	99	993	11-Mar-16	27	Blue	b	1	1.2445	B	A	WHOB	QKIA	brrb	rbbr	4	2000	1	6	0	99	993	11-Mar-16	28	Blue	n	0	1.0719	O	I	MECO	NJFI	rrbb	bbrr	4	650	1	6	0	99	993	11-Mar-16	29	Blue	l	1	1.3399	K	L	KEAC	LQOU	r	b	1	650	1	6	0	99	993	11-Mar-16	30	Blue	b	1	1.2093	J	B	VJGM	NBIE	rr	bb	2	650	1	6	0	99	993	11-Mar-16	31	Blue	b	1	1.1406	X	B	GOXH	MLBS	rbr	brb	3	650	1	6	0	99	993	11-Mar-16	32	Blue	w	0	1.7584	B	R	BKLP	RTYS	b	r	1	650	1	6	0	99	993	11-Mar-16	1	Red	l	1	1.2232	L	T	ULZC	ETGF	br	rb	2	2000	1	6	0	99	993	11-Mar-16	2	Red	a	0	1.2908	R	J	UNRH	ZAJI	bbr	rrb	3	2000	1	6	0	99	993	11-Mar-16	3	Red	a	1	0.997	V	A	IGWV	CRBA	brrb	rbbr	4	2000	1	6	0	99	993	11-Mar-16	4	Red	g	1	1.0728	A	G	ONFA	LBVG	rbbb	brrr	4	650	1	6	0	99	993	11-Mar-16	5	Red	t	1	1.208	J	T	DJRW	UTSQ	bb	rr	2	2000	1	6	0	99	993	11-Mar-16	6	Red	j	0	0.9636	N	L	SANK	CJLY	rbr	brb	3	2000	1	6	0	99	993	11-Mar-16	7	Red	b	1	1.0731	A	B	MXTA	QJDB	rbbb	brrr	4	650	1	6	0	99	993	11-Mar-16	8	Red	l	0	0.985	W	A	LPWU	ZKAM	rbr	brb	3	650	1	6	0	99	993	11-Mar-16	9	Red	h	0	1.0677	T	Y	GZPT	HJLY	brrb	rbbr	4	650	1	6	0	99	993	11-Mar-16	10	Red	u	1	1.3382	H	U	HKML	UAXI	b	r	1	2000	1	6	0	99	993	11-Mar-16	11	Red	a	1	1.383	Q	A	MQCI	KAFV	bb	rr	2	650	1	6	0	99	993	11-Mar-16	12	Red	u	1	1.0659	Q	U	PQXZ	BUSW	rb	br	2	650	1	6	0	99	993	11-Mar-16	13	Red	j	1	1.0824	X	J	DSXH	TPJF	rbb	brr	3	650	1	6	0	99	993	11-Mar-16	14	Red	y	0	1.0793	F	A	YFJP	UABS	rr	bb	2	650	1	6	0	99	993	11-Mar-16	15	Red	e	1	1.1867	E	N	MTKE	JDIN	rbrr	brbb	4	2000	1	6	0	99	993	11-Mar-16	16	Red	k	1	3.3339	K	Y	AKIE	HYBW	br	rb	2	2000	1	6	0	99	993	11-Mar-16	17	Red	i	1	0.967	I	E	NMIG	PUEZ	brr	rbb	3	2000	1	6	0	99	993	11-Mar-16	18	Red	t	0	2.3046	C	N	YCLI	TNVF	rb	br	2	650	1	6	0	99	993	11-Mar-16	19	Red	j	1	1.1463	Q	J	QCKT	JBXL	b	r	1	650	1	6	0	99	993	11-Mar-16	20	Red	z	0	1.9943	K	D	TGPK	LZAD	bbrr	rrbb	4	2000	1	6	0	99	993	11-Mar-16	21	Red	k	1	1.5853	K	L	KCWJ	LOQP	r	b	1	2000	1	6	0	99	993	11-Mar-16	22	Red	c	0	1.0487	L	X	QACL	KJOX	brrb	rbbr	4	2000	1	6	0	99	993	11-Mar-16	23	Red	y	1	1.3283	Y	B	YZAP	BKCT	r	b	1	2000	1	6	0	99	993	11-Mar-16	24	Red	q	0	1.5046	L	M	BXQL	DVYM	rrrb	bbbr	4	650	1	6	0	99	993	11-Mar-16	25	Red	y	1	1.4796	U	Y	OUVG	EYTN	rb	br	2	2000	1	6	0	99	993	11-Mar-16	26	Red	f	1	1.4711	F	G	FYUI	GTBR	r	b	1	650	1	6	0	99	993	11-Mar-16	27	Red	b	1	1.2389	X	B	XKZC	BRLI	b	r	1	2000	1	6	0	99	993	11-Mar-16	28	Red	h	0	1.199	K	X	OQKT	HYXM	brr	rbb	3	650	1	6	0	99	993	11-Mar-16	29	Red	s	1	1.0808	R	S	RTUE	SVLD	b	r	1	650	1	6	0	99	993	11-Mar-16	30	Red	x	1	1.1576	Q	X	QRKT	XMDZ	b	r	1	650	1	6	0	99	993	11-Mar-16	31	Red	j	0	1.1287	C	D	SMCT	RJDE	bbr	rrb	3	650	1	6	0	99	993	11-Mar-16	32	Red	s	0	2.6316	Z	U	KJZY	ITUR	rrb	bbr	3	2000	1	6	0	99	993	11-Mar-16	1	Blue	v	1	1.1267	R	V	FQRN	SBVJ	rbr	brb	3	650	1	6	0	99	993	11-Mar-16	2	Blue	w	1	1.1505	W	O	XCQW	SLBO	brbb	rbrr	4	2000	1	6	0	99	993	11-Mar-16	3	Blue	c	1	1.0688	F	C	GFTS	KCOQ	rr	bb	2	2000	1	6	0	99	993	11-Mar-16	4	Blue	z	1	1.1005	Z	N	PDZQ	LINW	rrb	bbr	3	2000	1	6	0	99	993	11-Mar-16	5	Blue	c	0	1.2831	Q	G	SQLD	CGVB	rb	br	2	650	1	6	0	99	993	11-Mar-16	6	Blue	j	0	0.9387	G	M	JGDZ	VMUC	br	rb	2	2000	1	6	0	99	993	11-Mar-16	7	Blue	a	0	2.3972	V	M	AVHJ	RMTU	br	rb	2	650	1	6	0	99	993	11-Mar-16	8	Blue	t	0	1.3394	N	Q	UNFB	TQOK	br	rb	2	650	1	6	0	99	993	11-Mar-16	9	Blue	f	0	1.2195	C	V	YXAC	FUHV	rrbb	bbrr	4	650	1	6	0	99	993	11-Mar-16	10	Blue	y	1	1.0224	Y	V	EOCY	QPSV	bbrb	rrbr	4	650	1	6	0	99	993	11-Mar-16	11	Blue	o	0	1.2125	M	R	DAYM	POTR	brbb	rbrr	4	2000	1	6	0	99	993	11-Mar-16	12	Blue	t	1	3.6941	T	W	FUTH	GNWA	brb	rbr	3	650	1	6	0	99	993	11-Mar-16	13	Blue	b	1	1.0971	B	F	HBMP	DFZA	bb	rr	2	2000	1	6	0	99	993	11-Mar-16	14	Blue	x	1	1.1603	X	C	WLXV	DSCE	bbb	rrr	3	650	1	6	0	99	993	11-Mar-16	15	Blue	r	0	1.9983	E	Z	QXET	RPZW	rbr	brb	3	2000	1	6	0	99	993	11-Mar-16	16	Blue	l	1	1.1198	L	V	THSL	GRNV	bbrb	rrbr	4	2000	1	6	0	99	993	11-Mar-16	17	Blue	f	0	1.3041	I	E	FLMI	RKHE	brrr	rbbb	4	650	1	6	0	99	993	11-Mar-16	18	Blue	t	1	1.3409	T	X	TQAW	XMVK	b	r	1	650	1	6	0	99	993	11-Mar-16	19	Blue	y	1	1.5471	L	Y	GQLE	BKYA	brr	rbb	3	2000	1	6	0	99	993	11-Mar-16	20	Blue	b	0	0.8518	C	Y	QFSC	BDZY	rrbb	bbrr	4	650	1	6	0	99	993	11-Mar-16	21	Blue	d	0	2.7692	U	K	USZC	KVYE	b	r	1	650	1	6	0	99	993	11-Mar-16	22	Blue	n	1	1.1313	N	G	NKQW	GEJH	b	r	1	650	1	6	0	99	993	11-Mar-16	23	Blue	x	1	1.095	P	X	PMVH	XSEK	r	b	1	650	1	6	0	99	993	11-Mar-16	24	Blue	a	0	1.02	V	L	VCQT	LGHJ	b	r	1	2000	1	6	0	99	993	11-Mar-16	25	Blue	n	1	1.2796	N	D	AWEN	CUFD	rbbb	brrr	4	2000	1	6	0	99	993	11-Mar-16	26	Blue	b	1	1.135	G	B	GJPS	BNIX	r	b	1	2000	1	6	0	99	993	11-Mar-16	27	Blue	s	1	2.4845	S	W	BSXF	GWYV	rb	br	2	2000	1	6	0	99	993	11-Mar-16	28	Blue	w	0	2.0266	D	R	NIDK	ELRF	brb	rbr	3	2000	1	6	0	99	993	11-Mar-16	29	Blue	x	0	1.5618	I	B	OWIJ	XYBE	rrb	bbr	3	650	1	6	0	99	993	11-Mar-16	30	Blue	j	1	1.4786	J	U	JWNR	UTQP	b	r	1	2000	1	6	0	99	993	11-Mar-16	31	Blue	k	1	1.3904	K	S	KWIV	STHM	b	r	1	2000	1	6	0	99	993	11-Mar-16	32	Blue	n	0	1.1443	E	H	NERK	BHYU	bb	rr	2	650	1	6	0	99	994	21-Apr-16	1	Blue	g	0	1.1854	M	K	UVBM	QPFK	rbbr	brrb	4	650	1	6	0	99	994	21-Apr-16	2	Blue	a	1	1.7567	A	Q	DIAE	OPQH	bbb	rrr	3	650	1	6	0	99	994	21-Apr-16	3	Blue	d	1	1.27	D	M	ECDV	HTMN	rbb	brr	3	2000	1	6	0	99	994	21-Apr-16	4	Blue	f	1	1.4376	F	W	NFIA	QWKB	bb	rr	2	2000	1	6	0	99	994	21-Apr-16	5	Blue	i	1	1.7426	I	R	ILTP	ROFU	b	r	1	650	1	6	0	99	994	21-Apr-16	6	Blue	z	0	1.5106	E	X	VNEZ	TJXH	rbr	brb	3	2000	1	6	0	99	994	21-Apr-16	7	Blue	u	1	1.9338	C	U	NCEL	MUTX	rr	bb	2	650	1	6	0	99	994	21-Apr-16	8	Blue	c	1	1.3492	Q	C	QUIM	CWPB	r	b	1	2000	1	6	0	99	994	21-Apr-16	9	Blue	w	1	1.3085	Q	W	BSJQ	PLNW	rbbr	brrb	4	650	1	6	0	99	994	21-Apr-16	10	Blue	w	1	1.1362	W	X	PAOW	NRBX	brbb	rbrr	4	2000	1	6	0	99	994	21-Apr-16	11	Blue	l	1	1.3726	L	M	NDLE	PKMT	rrb	bbr	3	650	1	6	0	99	994	21-Apr-16	12	Blue	c	1	1.3857	Y	C	KYAM	GCXL	rr	bb	2	2000	1	6	0	99	994	21-Apr-16	13	Blue	i	1	1.3341	I	A	SZRI	HPVA	bbrb	rrbr	4	650	1	6	0	99	994	21-Apr-16	14	Blue	z	1	1.2717	E	Z	AUJE	LRIZ	bbrr	rrbb	4	2000	1	6	0	99	994	21-Apr-16	15	Blue	d	1	1.2338	D	Q	XJDF	WPQM	bbb	rrr	3	2000	1	6	0	99	994	21-Apr-16	16	Blue	u	1	1.1162	U	X	MUKL	OXPW	rb	br	2	2000	1	6	0	99	994	21-Apr-16	17	Blue	j	1	1.192	J	Z	JLON	ZHXM	b	r	1	650	1	6	0	99	994	21-Apr-16	18	Blue	p	1	1.8005	P	M	PRIV	MJCE	b	r	1	2000	1	6	0	99	994	21-Apr-16	19	Blue	d	1	1.4239	D	K	SFJD	XUZK	brrb	rbbr	4	650	1	6	0	99	994	21-Apr-16	20	Blue	n	1	1.449	N	Y	INGK	LYMQ	rb	br	2	650	1	6	0	99	994	21-Apr-16	21	Blue	m	1	1.2708	L	M	GWQL	FTJM	bbbr	rrrb	4	2000	1	6	0	99	994	21-Apr-16	22	Blue	g	1	1.2225	G	X	GMUB	XEHJ	b	r	1	2000	1	6	0	99	994	21-Apr-16	23	Blue	n	1	1.3254	E	N	EKHL	NMYJ	r	b	1	2000	1	6	0	99	994	21-Apr-16	24	Blue	i	1	1.5968	R	I	YGRE	WJIK	bbr	rrb	3	650	1	6	0	99	994	21-Apr-16	25	Blue	v	1	2.463	L	V	LFEQ	VIUG	r	b	1	650	1	6	0	99	994	21-Apr-16	26	Blue	f	1	2.1655	T	F	QTGE	IFXC	rr	bb	2	650	1	6	0	99	994	21-Apr-16	27	Blue	g	1	1.6186	U	G	HBFU	LKYG	bbrr	rrbb	4	2000	1	6	0	99	994	21-Apr-16	28	Blue	o	1	1.2836	O	K	OCIP	KQUH	b	r	1	650	1	6	0	99	994	21-Apr-16	29	Blue	y	1	1.6051	Y	Z	HNYG	IFZR	brb	rbr	3	2000	1	6	0	99	994	21-Apr-16	30	Blue	m	1	1.4267	F	M	HFRT	WMYL	br	rb	2	2000	1	6	0	99	994	21-Apr-16	31	Blue	i	0	1.6853	U	B	JEUR	DIBP	rrb	bbr	3	650	1	6	0	99	994	21-Apr-16	32	Blue	b	0	1.2528	M	C	FMGD	HCQN	rb	br	2	650	1	6	0	99	994	21-Apr-16	1	Red	w	1	2.0123	S	W	SMBC	WOFV	b	r	1	650	1	6	0	99	994	21-Apr-16	2	Red	s	1	1.289	Q	S	QACP	STIV	b	r	1	2000	1	6	0	99	994	21-Apr-16	3	Red	q	1	1.9514	Q	C	QKES	CORW	r	b	1	650	1	6	0	99	994	21-Apr-16	4	Red	b	0	1.6888	W	A	XDWG	TVAU	brb	rbr	3	650	1	6	0	99	994	21-Apr-16	5	Red	z	1	1.1974	D	Z	VXKD	GMYZ	brbb	rbrr	4	2000	1	6	0	99	994	21-Apr-16	6	Red	e	1	1.592	F	E	UFBH	TEGL	rb	br	2	2000	1	6	0	99	994	21-Apr-16	7	Red	y	1	1.4521	Y	I	GYEX	DIUF	br	rb	2	2000	1	6	0	99	994	21-Apr-16	8	Red	y	1	1.1755	Y	X	HAYK	LSXU	bbr	rrb	3	2000	1	6	0	99	994	21-Apr-16	9	Red	u	1	1.2782	U	D	FPOU	ZNID	rbrr	brbb	4	650	1	6	0	99	994	21-Apr-16	10	Red	t	1	1.5906	S	T	RWSF	ZDTU	rrb	bbr	3	2000	1	6	0	99	994	21-Apr-16	11	Red	v	1	1.1263	V	T	REVF	JMTY	rbr	brb	3	2000	1	6	0	99	994	21-Apr-16	12	Red	k	1	1.1271	K	S	ZBIK	UQDS	rrbr	bbrb	4	2000	1	6	0	99	994	21-Apr-16	13	Red	z	0	1.0924	I	G	QCIZ	URGL	rrb	bbr	3	650	1	6	0	99	994	21-Apr-16	14	Red	n	1	1.1933	B	N	BXPY	NLZI	b	r	1	2000	1	6	0	99	994	21-Apr-16	15	Red	r	1	1.2254	I	R	IDOW	RTYS	b	r	1	650	1	6	0	99	994	21-Apr-16	16	Red	q	0	2.0105	U	E	TUMS	REDV	br	rb	2	2000	1	6	0	99	994	21-Apr-16	17	Red	d	1	1.4566	Q	D	HQCP	KDUR	rb	br	2	650	1	6	0	99	994	21-Apr-16	18	Red	s	1	2.313	B	S	BAJL	SPYM	b	r	1	2000	1	6	0	99	994	21-Apr-16	19	Red	r	1	1.8068	R	B	SCGR	PLEB	rbrr	brbb	4	650	1	6	0	99	994	21-Apr-16	20	Red	f	1	4.1138	F	Z	FAOY	ZRSG	r	b	1	2000	1	6	0	99	994	21-Apr-16	21	Red	c	1	1.4468	S	C	XSZM	YCPH	rb	br	2	650	1	6	0	99	994	21-Apr-16	22	Red	w	0	1.209	R	A	QEUR	ITYA	bbrr	rrbb	4	650	1	6	0	99	994	21-Apr-16	23	Red	e	1	1.5559	E	J	KEBC	PJMV	rr	bb	2	2000	1	6	0	99	994	21-Apr-16	24	Red	b	1	1.2887	B	L	BWCU	LJPO	r	b	1	650	1	6	0	99	994	21-Apr-16	25	Red	d	1	1.3195	D	X	WFDU	MRXV	bbr	rrb	3	650	1	6	0	99	994	21-Apr-16	26	Red	w	0	1.6623	L	U	AFLN	GJUX	rrr	bbb	3	650	1	6	0	99	994	21-Apr-16	27	Red	w	0	1.128	I	A	GIQW	TARK	br	rb	2	650	1	6	0	99	994	21-Apr-16	28	Red	y	1	1.4975	T	Y	NVHT	UIEY	rrbb	bbrr	4	2000	1	6	0	99	994	21-Apr-16	29	Red	h	1	1.1241	H	Z	KVAH	JWLZ	brrr	rbbb	4	2000	1	6	0	99	994	21-Apr-16	30	Red	z	1	1.4027	G	Z	EJGY	TPZN	brb	rbr	3	2000	1	6	0	99	994	21-Apr-16	31	Red	z	1	1.1658	Z	Q	SZPU	VQBG	rr	bb	2	650	1	6	0	99	994	21-Apr-16	32	Red	q	0	2.9953	A	V	PXLA	YOHV	brrb	rbbr	4	650	1	6	0	99	994	21-Apr-16	1	Blue	w	0	3.0028	K	I	ZKXH	NITA	rr	bb	2	650	1	6	0	99	994	21-Apr-16	2	Blue	n	1	1.0394	O	N	CXFO	YGLN	rrbr	bbrb	4	650	1	6	0	99	994	21-Apr-16	3	Blue	f	1	1.9129	J	F	TJSA	ZFPL	br	rb	2	2000	1	6	0	99	994	21-Apr-16	4	Blue	w	0	1.7935	L	J	MLSO	EJND	bb	rr	2	650	1	6	0	99	994	21-Apr-16	5	Blue	n	1	1.2496	Y	N	PGYW	LUNO	bbr	rrb	3	2000	1	6	0	99	994	21-Apr-16	6	Blue	e	1	1.6161	Q	E	QMYP	EIFK	r	b	1	650	1	6	0	99	994	21-Apr-16	7	Blue	s	1	1.6358	H	S	EHOC	YSGV	rr	bb	2	650	1	6	0	99	994	21-Apr-16	8	Blue	m	1	0.9817	M	Z	MKBS	ZHDU	b	r	1	650	1	6	0	99	994	21-Apr-16	9	Blue	y	1	1.5974	Q	Y	QSBT	YGFE	r	b	1	650	1	6	0	99	994	21-Apr-16	10	Blue	t	0	1.0513	U	W	FGUO	LSWY	bbb	rrr	3	650	1	6	0	99	994	21-Apr-16	11	Blue	f	1	1.257	F	P	FXLQ	PBJC	b	r	1	2000	1	6	0	99	994	21-Apr-16	12	Blue	t	0	1.0547	V	E	TRPV	JHQE	bbrb	rrbr	4	2000	1	6	0	99	994	21-Apr-16	13	Blue	f	1	1.3133	U	F	HARU	QIGF	rbbr	brrb	4	2000	1	6	0	99	994	21-Apr-16	14	Blue	b	1	1.3816	U	B	UJIZ	BFWM	r	b	1	650	1	6	0	99	994	21-Apr-16	15	Blue	a	1	1.5296	P	A	JPIY	HAWK	br	rb	2	2000	1	6	0	99	994	21-Apr-16	16	Blue	n	1	1.3516	N	H	NOFG	HEAU	b	r	1	2000	1	6	0	99	994	21-Apr-16	17	Blue	m	1	1.1683	N	M	YLXN	SKUM	rrrr	bbbb	4	650	1	6	0	99	994	21-Apr-16	18	Blue	c	1	1.1734	C	N	STCE	RFNW	brb	rbr	3	2000	1	6	0	99	994	21-Apr-16	19	Blue	b	0	1.1859	K	O	ARKP	XJOQ	rrr	bbb	3	650	1	6	0	99	994	21-Apr-16	20	Blue	m	0	1.2428	K	F	HKAE	UFIO	rb	br	2	650	1	6	0	99	994	21-Apr-16	21	Blue	r	0	1.0685	U	W	NDUX	AKWJ	brb	rbr	3	650	1	6	0	99	994	21-Apr-16	22	Blue	p	1	1.3715	U	P	VUXG	MPJF	br	rb	2	2000	1	6	0	99	994	21-Apr-16	23	Blue	w	1	1.4554	W	E	WOZM	ESKP	b	r	1	2000	1	6	0	99	994	21-Apr-16	24	Blue	x	1	0.9859	X	Q	TGHX	DKFQ	rbrb	brbr	4	650	1	6	0	99	994	21-Apr-16	25	Blue	i	1	1.0871	F	I	GPSF	HYJI	rrrr	bbbb	4	650	1	6	0	99	994	21-Apr-16	26	Blue	b	1	2.2367	J	B	PJDQ	HBCN	rr	bb	2	2000	1	6	0	99	994	21-Apr-16	27	Blue	k	0	1.2391	M	T	CODM	URAT	brbr	rbrb	4	2000	1	6	0	99	994	21-Apr-16	28	Blue	v	1	0.9287	V	H	CWVD	JAHX	rbb	brr	3	2000	1	6	0	99	994	21-Apr-16	29	Blue	e	1	1.5519	E	I	LSEY	UNIB	bbb	rrr	3	2000	1	6	0	99	994	21-Apr-16	30	Blue	q	1	1.9392	Q	I	QYFS	IKRD	b	r	1	2000	1	6	0	99	994	21-Apr-16	31	Blue	w	0	1.1172	A	B	CKAP	XRBS	rbb	brr	3	650	1	6	0	99	994	21-Apr-16	32	Blue	r	0	1.2216	V	Q	RPUV	HXWQ	rbbr	brrb	4	2000	1	6	0	99	994	21-Apr-16	1	Red	q	1	2.1267	T	Q	THMX	QGSD	b	r	1	2000	1	6	0	99	994	21-Apr-16	2	Red	l	1	1.3282	A	L	AVGK	LZBJ	b	r	1	650	1	6	0	99	994	21-Apr-16	3	Red	s	1	0.9078	P	S	PHLY	SOJI	b	r	1	650	1	6	0	99	994	21-Apr-16	4	Red	t	1	1.1109	J	T	JGRL	TBSN	b	r	1	2000	1	6	0	99	994	21-Apr-16	5	Red	h	1	1.1801	C	H	DCZR	WHJY	bb	rr	2	2000	1	6	0	99	994	21-Apr-16	6	Red	a	0	1.3823	I	U	FICY	MUZS	br	rb	2	650	1	6	0	99	994	21-Apr-16	7	Red	z	1	1.3901	I	Z	DPTI	GAEZ	rrrb	bbbr	4	2000	1	6	0	99	994	21-Apr-16	8	Red	f	1	2.1391	F	V	HRFX	WGVY	brr	rbb	3	650	1	6	0	99	994	21-Apr-16	9	Red	z	1	1.7706	C	Z	COJT	ZBAI	b	r	1	650	1	6	0	99	994	21-Apr-16	10	Red	w	1	1.2127	W	Y	VBEW	QFGY	brrr	rbbb	4	2000	1	6	0	99	994	21-Apr-16	11	Red	u	1	1.1033	D	U	QDCM	YUVN	rb	br	2	2000	1	6	0	99	994	21-Apr-16	12	Red	d	1	1.1827	Q	D	KXQW	FHDY	brb	rbr	3	2000	1	6	0	99	994	21-Apr-16	13	Red	q	0	2.1142	K	Z	GKQL	YZBC	br	rb	2	2000	1	6	0	99	994	21-Apr-16	14	Red	l	1	1.5433	S	L	YTRS	IBZL	brrb	rbbr	4	650	1	6	0	99	994	21-Apr-16	15	Red	x	1	1.3188	X	Y	CFXZ	KPYE	brr	rbb	3	650	1	6	0	99	994	21-Apr-16	16	Red	s	1	1.1267	S	P	JUXS	IWDP	rbbr	brrb	4	650	1	6	0	99	994	21-Apr-16	17	Red	f	1	1.1667	F	X	LPOF	MCBX	bbrr	rrbb	4	2000	1	6	0	99	994	21-Apr-16	18	Red	f	1	1.2423	F	I	HFZB	XIUC	rr	bb	2	2000	1	6	0	99	994	21-Apr-16	19	Red	j	1	1.453	E	J	MKLE	BIZJ	brrb	rbbr	4	650	1	6	0	99	994	21-Apr-16	20	Red	a	1	1.4853	U	A	KUOQ	XANH	bb	rr	2	650	1	6	0	99	994	21-Apr-16	21	Red	o	0	1.2295	C	P	XNCJ	FRPY	rrr	bbb	3	650	1	6	0	99	994	21-Apr-16	22	Red	q	1	1.223	X	Q	PXIU	VQTL	bb	rr	2	650	1	6	0	99	994	21-Apr-16	23	Red	h	1	1.4404	U	H	UIRO	HGBN	b	r	1	2000	1	6	0	99	994	21-Apr-16	24	Red	w	1	1.3074	S	W	GVSY	DCWZ	bbb	rrr	3	2000	1	6	0	99	994	21-Apr-16	25	Red	b	0	1.3843	N	V	ANZO	EVXT	br	rb	2	650	1	6	0	99	994	21-Apr-16	26	Red	r	0	1.2958	F	U	ZAXF	HYQU	bbrb	rrbr	4	650	1	6	0	99	994	21-Apr-16	27	Red	i	1	1.352	I	H	YDIO	XRHJ	brr	rbb	3	2000	1	6	0	99	994	21-Apr-16	28	Red	a	1	1.6551	A	X	TVAY	RKXP	bbr	rrb	3	2000	1	6	0	99	994	21-Apr-16	29	Red	h	1	1.4104	H	V	NYHW	ETVF	rbr	brb	3	650	1	6	0	99	994	21-Apr-16	30	Red	a	1	1.7448	A	K	SEWA	XLDK	bbrr	rrbb	4	2000	1	6	0	99	994	21-Apr-16	31	Red	t	1	1.9439	T	Y	TMFU	YSLH	r	b	1	2000	1	6	0	99	994	21-Apr-16	32	Red	o	1	1.1426	O	D	OUEG	DWSN	r	b	1	650	1	6	0	99	994	21-Apr-16	1	Blue	k	1	1.2561	99	99	LKYR	BDWM	99	99	2	2000	1	3	1	LKYR	K4	21-Apr-16	2	Blue	w	1	1.6013	99	99	FNUW	SICX	9999	9999	4	650	1	3	1	FNUW	W4	21-Apr-16	3	Blue	h	1	1.3003	99	99	HCPN	JLDM	9	9	1	650	1	3	1	HCPN	H4	21-Apr-16	4	Blue	t	1	1.3941	99	99	TLGN	BCVX	9	9	1	650	1	3	1	TLGN	T4	21-Apr-16	5	Blue	m	1	1.0071	99	99	ITMB	UVXK	999	999	3	2000	1	3	1	ITMB	M4	21-Apr-16	6	Blue	o	1	1.1356	99	99	OTIP	HJQM	9	9	1	2000	1	3	1	OTIP	O4	21-Apr-16	7	Blue	c	1	1.2537	99	99	KYCI	NLZX	999	999	3	650	1	3	1	KYCI	C4	21-Apr-16	8	Blue	d	1	1.5072	99	99	DOEU	ZSRW	9	9	1	650	1	3	1	DOEU	D4	21-Apr-16	9	Blue	u	0	1.0602	99	99	BIMG	HUQS	99	99	2	2000	1	3	1	BIMG	I4	21-Apr-16	10	Blue	n	0	1.0234	99	99	GNHQ	YIOM	9999	9999	4	2000	1	3	1	GNHQ	Q4	21-Apr-16	11	Blue	l	0	1.2015	99	99	RFPE	KSAL	9999	9999	4	650	1	3	1	RFPE	E4	21-Apr-16	12	Blue	n	0	1.4715	99	99	YCXW	KONB	9999	9999	4	2000	1	3	1	YCXW	W4	21-Apr-16	13	Blue	a	0	1.7552	99	99	ESDI	HZQA	999	999	3	2000	1	3	1	ESDI	D4	21-Apr-16	14	Blue	s	0	1.709	99	99	RUGE	FPST	9999	9999	4	650	1	3	1	RUGE	E4	21-Apr-16	15	Blue	c	0	1.5902	99	99	RLCO	WNUP	9999	9999	4	650	1	3	1	RLCO	O4	21-Apr-16	16	Blue	p	0	1.2692	99	99	PQTZ	UCAM	999	999	3	650	1	3	1	PQTZ	T4	21-Apr-16	17	Blue	c	0	1.3822	99	99	CWOF	VAUY	999	999	3	650	1	3	1	CWOF	O4	21-Apr-16	18	Blue	c	1	1.0845	99	99	QACM	TIYD	999	999	3	2000	1	3	1	QACM	C4	21-Apr-16	19	Blue	c	1	1.1866	99	99	CAUF	XTEY	9	9	1	2000	1	3	1	CAUF	C4	21-Apr-16	20	Blue	r	1	1.1237	99	99	RYSA	CZKF	9	9	1	2000	1	3	1	RYSA	R4	21-Apr-16	21	Blue	d	1	1.4077	99	99	DAGM	TZIY	9	9	1	2000	1	3	1	DAGM	D4	21-Apr-16	22	Blue	n	0	1.1461	99	99	NTUE	FQVX	99	99	2	650	1	3	1	NTUE	T4	21-Apr-16	23	Blue	y	0	1.0537	99	99	YKST	DHZB	99	99	2	650	1	3	1	YKST	K4	21-Apr-16	24	Blue	u	0	1.1962	99	99	UWVD	NTRF	99	99	2	650	1	3	1	UWVD	W4	21-Apr-16	25	Blue	k	1	1.3917	99	99	WKDL	ZEYV	99	99	2	2000	1	3	1	WKDL	K4	21-Apr-16	26	Blue	h	0	1.499	99	99	HCNB	OUIY	99	99	2	650	1	3	1	HCNB	C4	21-Apr-16	27	Blue	t	1	1.3437	99	99	ENWT	SYKX	9999	9999	4	2000	1	3	1	ENWT	T4	21-Apr-16	28	Blue	e	0	1.5935	99	99	SVEN	DCMR	9999	9999	4	2000	1	3	1	SVEN	N4	21-Apr-16	29	Blue	b	1	1.1503	99	99	TBVO	GSKA	99	99	2	2000	1	3	1	TBVO	B4	21-Apr-16	30	Blue	k	0	1.4369	99	99	QPWB	XELC	999	999	3	2000	1	3	1	QPWB	W4	21-Apr-16	31	Blue	e	1	1.4769	99	99	EXLI	VBTN	9	9	1	650	1	3	1	EXLI	E4	21-Apr-16	32	Blue	z	0	1.1437	99	99	ZPBQ	EDLR	999	999	3	650	1	3	1	ZPBQ	B4	21-Apr-16	1	Red	k	1	1.102	99	99	KIAF	ZVSU	9	9	1	2000	1	3	1	KIAF	K4	21-Apr-16	2	Red	b	1	1.9319	99	99	PGBQ	LZTV	999	999	3	650	1	3	1	PGBQ	B4	21-Apr-16	3	Red	r	0	1.263	99	99	BGJA	RHLO	999	999	3	2000	1	3	1	BGJA	J4	21-Apr-16	4	Red	l	0	1.1302	99	99	VPIN	KWDS	999	999	3	2000	1	3	1	VPIN	I4	21-Apr-16	5	Red	d	0	1.1689	99	99	WDXJ	UYET	9999	9999	4	650	1	3	1	WDXJ	J4	21-Apr-16	6	Red	b	1	0.8963	99	99	VDLB	RUGP	9999	9999	4	2000	1	3	1	VDLB	B4	21-Apr-16	7	Red	m	0	1.1891	99	99	MRTI	DCYL	99	99	2	650	1	3	1	MRTI	R4	21-Apr-16	8	Red	t	0	2.395	99	99	CTEK	IYAG	9999	9999	4	2000	1	3	1	CTEK	K4	21-Apr-16	9	Red	b	1	1.0616	99	99	UBAF	ZEMR	99	99	2	2000	1	3	1	UBAF	B4	21-Apr-16	10	Red	z	1	1.5876	99	99	ZNSV	OAKF	9	9	1	650	1	3	1	ZNSV	Z4	21-Apr-16	11	Red	m	0	1.3131	99	99	QWSG	YDJE	99	99	2	2000	1	3	1	QWSG	W4	21-Apr-16	12	Red	b	1	1.3893	99	99	BMLE	PXNV	9	9	1	650	1	3	1	BMLE	B4	21-Apr-16	13	Red	c	1	1.3829	99	99	CNGI	PDSJ	9	9	1	650	1	3	1	CNGI	C4	21-Apr-16	14	Red	n	0	1.656	99	99	GISA	HMKR	9999	9999	4	2000	1	3	1	GISA	A4	21-Apr-16	15	Red	u	1	4.1476	99	99	YSUX	GCPD	999	999	3	2000	1	3	1	YSUX	U4	21-Apr-16	16	Red	r	0	2.7052	99	99	DNPZ	RMQB	99	99	2	2000	1	3	1	DNPZ	N4	21-Apr-16	17	Red	l	0	2.3401	99	99	NTMI	ELBX	9	9	1	650	1	3	1	NTMI	N4	21-Apr-16	18	Red	r	1	1.2264	99	99	TYRO	NFUS	999	999	3	2000	1	3	1	TYRO	R4	21-Apr-16	19	Red	p	1	1.3582	99	99	CTBP	VRWY	9999	9999	4	650	1	3	1	CTBP	P4	21-Apr-16	20	Red	m	0	1.5388	99	99	MPFV	ZBDI	999	999	3	650	1	3	1	MPFV	F4	21-Apr-16	21	Red	u	1	1.3443	99	99	UXYI	ZOKJ	9	9	1	2000	1	3	1	UXYI	U4	21-Apr-16	22	Red	b	0	1.2966	99	99	WBLJ	MGSD	9999	9999	4	650	1	3	1	WBLJ	J4	21-Apr-16	23	Red	i	1	1.3986	99	99	IJOE	ULVR	9	9	1	2000	1	3	1	IJOE	I4	21-Apr-16	24	Red	c	0	1.5535	99	99	CQSR	TWAD	99	99	2	650	1	3	1	CQSR	Q4	21-Apr-16	25	Red	s	1	1.176	99	99	WFSK	MGTO	999	999	3	650	1	3	1	WFSK	S4	21-Apr-16	26	Red	w	1	1.3542	99	99	XWOR	DJZS	99	99	2	650	1	3	1	XWOR	W4	21-Apr-16	27	Red	s	0	1.3286	99	99	OUIK	LYZS	999	999	3	650	1	3	1	OUIK	I4	21-Apr-16	28	Red	z	1	1.3196	99	99	PZCQ	WSKJ	99	99	2	2000	1	3	1	PZCQ	Z4	21-Apr-16	29	Red	z	1	1.7401	99	99	ZFUE	RHPQ	9	9	1	2000	1	3	1	ZFUE	Z4	21-Apr-16	30	Red	i	0	2.325	99	99	SZET	IRJX	9999	9999	4	650	1	3	1	SZET	T4	21-Apr-16	31	Red	o	0	1.244	99	99	BQET	XJIO	9999	9999	4	2000	1	3	1	BQET	T4	21-Apr-16	32	Red	l	0	1.342	99	99	LPAE	IWXC	99	99	2	650	1	3	1	LPAE	P4	21-Apr-16	1	Blue	p	1	0.8846	99	99	UWPH	RCVO	999	999	3	2000	1	3	1	UWPH	P4	21-Apr-16	2	Blue	b	0	1.5774	99	99	BFEG	UTIO	99	99	2	650	1	3	1	BFEG	F4	21-Apr-16	3	Blue	m	1	1.0384	99	99	MQLY	ZBPA	9	9	1	650	1	3	1	MQLY	M4	21-Apr-16	4	Blue	t	1	1.0736	99	99	YWZT	NGBX	9999	9999	4	2000	1	3	1	YWZT	T4	21-Apr-16	5	Blue	b	0	2.9358	99	99	WISV	RTML	9	9	1	2000	1	3	1	WISV	W4	21-Apr-16	6	Blue	m	1	3.2225	99	99	NAMQ	GKBP	999	999	3	650	1	3	1	NAMQ	M4	21-Apr-16	7	Blue	s	1	1.1233	99	99	HUSN	LWRQ	999	999	3	650	1	3	1	HUSN	S4	21-Apr-16	8	Blue	b	1	1.5785	99	99	PJBG	LROW	999	999	3	2000	1	3	1	PJBG	B4	21-Apr-16	9	Blue	f	1	1.1681	99	99	OFHC	MJZD	99	99	2	650	1	3	1	OFHC	F4	21-Apr-16	10	Blue	n	1	1.082	99	99	NUAF	BXVJ	9	9	1	2000	1	3	1	NUAF	N4	21-Apr-16	11	Blue	b	1	1.3436	99	99	BPCG	TUIM	9	9	1	2000	1	3	1	BPCG	B4	21-Apr-16	12	Blue	r	1	1.3584	99	99	IURF	PAHB	999	999	3	2000	1	3	1	IURF	R4	21-Apr-16	13	Blue	s	0	1.2727	99	99	CSHF	IDBW	9999	9999	4	2000	1	3	1	CSHF	F4	21-Apr-16	14	Blue	y	1	0.915	99	99	FRIY	BSLZ	9999	9999	4	2000	1	3	1	FRIY	Y4	21-Apr-16	15	Blue	l	1	1.5915	99	99	LRVA	SCYH	9	9	1	2000	1	3	1	LRVA	L4	21-Apr-16	16	Blue	r	1	1.1162	99	99	CIRP	ZKFA	999	999	3	650	1	3	1	CIRP	R4	21-Apr-16	17	Blue	g	0	1.4199	99	99	WDGJ	NSLZ	9999	9999	4	650	1	3	1	WDGJ	J4	21-Apr-16	18	Blue	l	1	1.656	99	99	XLNE	CZIV	99	99	2	2000	1	3	1	XLNE	L4	21-Apr-16	19	Blue	g	1	1.5256	99	99	HLIG	ZKRN	9999	9999	4	2000	1	3	1	HLIG	G4	21-Apr-16	20	Blue	e	1	1.3037	99	99	PXEL	YNVA	999	999	3	2000	1	3	1	PXEL	E4	21-Apr-16	21	Blue	o	0	1.6313	99	99	ISAR	FWKO	9999	9999	4	650	1	3	1	ISAR	R4	21-Apr-16	22	Blue	x	0	1.2449	99	99	VRMW	ULBT	999	999	3	650	1	3	1	VRMW	M4	21-Apr-16	23	Blue	c	0	1.5084	99	99	CKQA	YMXL	99	99	2	650	1	3	1	CKQA	K4	21-Apr-16	24	Blue	u	0	1.3809	99	99	UXKJ	WQLD	99	99	2	650	1	3	1	UXKJ	X4	21-Apr-16	25	Blue	f	0	1.6981	99	99	FNGB	LYDP	9999	9999	4	650	1	3	1	FNGB	B4	21-Apr-16	26	Blue	t	1	1.6025	99	99	TDFP	MAOU	9	9	1	650	1	3	1	TDFP	T4	21-Apr-16	27	Blue	w	0	1.3122	99	99	WYLJ	ZXAI	9999	9999	4	650	1	3	1	WYLJ	J4	21-Apr-16	28	Blue	n	1	1.2304	99	99	PNOC	JAIT	99	99	2	2000	1	3	1	PNOC	N4	21-Apr-16	29	Blue	g	1	1.6553	99	99	GETX	PCZW	9	9	1	650	1	3	1	GETX	G4	21-Apr-16	30	Blue	o	0	1.3193	99	99	KFJR	WLXQ	9	9	1	650	1	3	1	KFJR	K4	21-Apr-16	31	Blue	m	1	1.222	99	99	FMSO	DEQP	99	99	2	2000	1	3	1	FMSO	M4	21-Apr-16	32	Blue	p	1	1.289	99	99	YPJO	RVXF	99	99	2	2000	1	3	1	YPJO	P4	21-Apr-16	1	Red	z	1	1.1995	99	99	PZRS	YGAC	99	99	2	2000	1	3	1	PZRS	Z4	21-Apr-16	2	Red	y	1	1.0405	99	99	YCMW	EDHF	9	9	1	650	1	3	1	YCMW	Y4	21-Apr-16	3	Red	d	0	0.824	99	99	DITB	KUOF	99	99	2	650	1	3	1	DITB	I4	21-Apr-16	4	Red	g	0	1.0833	99	99	IGLW	RCPF	999	999	3	2000	1	3	1	IGLW	L4	21-Apr-16	5	Red	o	0	1.3932	99	99	QMKY	FISW	99	99	2	650	1	3	1	QMKY	M4	21-Apr-16	6	Red	u	0	3.5165	99	99	INPW	VJSC	9	9	1	2000	1	3	1	INPW	I4	21-Apr-16	7	Red	c	1	1.0137	99	99	TCGF	VRXJ	99	99	2	2000	1	3	1	TCGF	C4	21-Apr-16	8	Red	l	0	1.7487	99	99	IGKJ	MLQD	9	9	1	650	1	3	1	IGKJ	I4	21-Apr-16	9	Red	r	0	1.3825	99	99	JXQD	ROKG	999	999	3	2000	1	3	1	JXQD	Q4	21-Apr-16	10	Red	o	1	1.1485	99	99	PJAO	ERIV	9999	9999	4	650	1	3	1	PJAO	O4	21-Apr-16	11	Red	r	1	1.1612	99	99	VRWF	PGLQ	99	99	2	650	1	3	1	VRWF	R4	21-Apr-16	12	Red	l	1	1.3708	99	99	LEPQ	IZTD	9	9	1	650	1	3	1	LEPQ	L4	21-Apr-16	13	Red	u	1	1.8398	99	99	OUBV	ALZK	99	99	2	2000	1	3	1	OUBV	U4	21-Apr-16	14	Red	m	0	1.3839	99	99	HLQJ	VPRI	9999	9999	4	2000	1	3	1	HLQJ	J4	21-Apr-16	15	Red	y	0	1.4479	99	99	PYNU	JEMO	9999	9999	4	2000	1	3	1	PYNU	U4	21-Apr-16	16	Red	w	0	1.1557	99	99	XWLO	EHJZ	999	999	3	650	1	3	1	XWLO	L4	21-Apr-16	17	Red	b	0	1.0436	99	99	SBMC	NAOP	9999	9999	4	2000	1	3	1	SBMC	C4	21-Apr-16	18	Red	u	0	1.0753	99	99	VUYA	SCZW	999	999	3	650	1	3	1	VUYA	Y4	21-Apr-16	19	Red	p	0	1.1066	99	99	PONK	UYHD	99	99	2	650	1	3	1	PONK	O4	21-Apr-16	20	Red	y	0	1.7161	99	99	FYBM	TLCK	9999	9999	4	2000	1	3	1	FYBM	M4	21-Apr-16	21	Red	c	0	1.0592	99	99	YMBK	CESD	9	9	1	2000	1	3	1	YMBK	Y4	21-Apr-16	22	Red	d	1	0.9633	99	99	XDNQ	YAVL	99	99	2	2000	1	3	1	XDNQ	D4	21-Apr-16	23	Red	o	0	1.1502	99	99	OHIZ	PKBJ	999	999	3	650	1	3	1	OHIZ	I4	21-Apr-16	24	Red	n	1	1.3047	99	99	NTYW	PBZX	9	9	1	650	1	3	1	NTYW	N4	21-Apr-16	25	Red	u	0	1.0266	99	99	UICF	NSOQ	9999	9999	4	650	1	3	1	UICF	F4	21-Apr-16	26	Red	b	1	1.1573	99	99	JQBI	VXDC	999	999	3	2000	1	3	1	JQBI	B4	21-Apr-16	27	Red	n	0	1.1301	99	99	NBQV	STRZ	999	999	3	650	1	3	1	NBQV	Q4	21-Apr-16	28	Red	e	0	1.3932	99	99	SEIG	UXMQ	999	999	3	2000	1	3	1	SEIG	I4	21-Apr-16	29	Red	n	1	1.8277	99	99	NPHB	DMIF	9	9	1	2000	1	3	1	NPHB	N4	21-Apr-16	30	Red	f	0	1.2174	99	99	GFDL	PIWE	9999	9999	4	650	1	3	1	GFDL	L4	21-Apr-16	31	Red	z	1	1.9145	99	99	ZJXW	YAEO	9	9	1	2000	1	3	1	ZJXW	Z4	21-Apr-16	32	Red	s	0	1.1905	99	99	EDSH	TKIA	9999	9999	4	650	1	3	1	EDSH	H5	21-Apr-16	1	Red	o	1	0.9498	99	99	CFPO	DEYT	9999	9999	4	650	1	3	1	CFPO	O5	21-Apr-16	2	Red	r	0	0.9533	99	99	JTBX	KHRI	9999	9999	4	650	1	3	1	JTBX	X5	21-Apr-16	3	Red	k	1	0.8567	99	99	ZFKU	BVNA	999	999	3	2000	1	3	1	ZFKU	K5	21-Apr-16	4	Red	t	1	1.1841	99	99	NTCU	ZJWE	99	99	2	2000	1	3	1	NTCU	T5	21-Apr-16	5	Red	a	1	0.9098	99	99	BJMA	CZLS	9999	9999	4	2000	1	3	1	BJMA	A5	21-Apr-16	6	Red	b	1	0.9949	99	99	RBJS	AIZF	99	99	2	2000	1	3	1	RBJS	B5	21-Apr-16	7	Red	e	1	2.2432	99	99	EIOC	HTWB	9	9	1	650	1	3	1	EIOC	E5	21-Apr-16	8	Red	r	1	1.2104	99	99	SNRK	JZOF	999	999	3	650	1	3	1	SNRK	R5	21-Apr-16	9	Red	d	1	1.1386	99	99	DGBO	LNJV	9	9	1	2000	1	3	1	DGBO	D5	21-Apr-16	10	Red	s	1	1.0543	99	99	SEPU	LOTD	9	9	1	2000	1	3	1	SEPU	S5	21-Apr-16	11	Red	r	1	1.1478	99	99	RBTP	AOCJ	9	9	1	2000	1	3	1	RBTP	R5	21-Apr-16	12	Red	e	1	0.7729	99	99	RAKE	MZBC	9999	9999	4	2000	1	3	1	RAKE	E5	21-Apr-16	13	Red	v	1	0.8563	99	99	ZQIV	KPAU	9999	9999	4	650	1	3	1	ZQIV	V5	21-Apr-16	14	Red	c	1	0.9588	99	99	OYCT	SMKD	999	999	3	650	1	3	1	OYCT	C5	21-Apr-16	15	Red	d	1	0.7557	99	99	JXDM	WPCB	999	999	3	2000	1	3	1	JXDM	D5	21-Apr-16	16	Red	s	0	0.9608	99	99	FARE	NJPS	9999	9999	4	650	1	3	1	FARE	E5	21-Apr-16	17	Red	j	1	0.8214	99	99	RDJQ	UGVI	999	999	3	2000	1	3	1	RDJQ	J5	21-Apr-16	18	Red	k	0	1.4923	99	99	SFJZ	OVKC	99	99	2	650	1	3	1	SFJZ	F5	21-Apr-16	19	Red	e	1	1.2212	99	99	PEMI	RHGV	99	99	2	650	1	3	1	PEMI	E5	21-Apr-16	20	Red	p	1	0.9534	99	99	DZPF	LGQS	999	999	3	2000	1	3	1	DZPF	P5	21-Apr-16	21	Red	i	1	0.8855	99	99	VTIS	RWYU	999	999	3	650	1	3	1	VTIS	I5	21-Apr-16	22	Red	w	1	0.8855	99	99	THUW	MVLF	9999	9999	4	2000	1	3	1	THUW	W5	21-Apr-16	23	Red	v	1	0.9562	99	99	XVOA	TRGJ	99	99	2	2000	1	3	1	XVOA	V5	21-Apr-16	24	Red	i	1	1.142	99	99	ILXZ	WORF	9	9	1	650	1	3	1	ILXZ	I5	21-Apr-16	25	Red	s	1	0.8013	99	99	TSKC	LRIO	99	99	2	650	1	3	1	TSKC	S5	21-Apr-16	26	Red	p	1	0.9044	99	99	PBFI	CKVD	9	9	1	2000	1	3	1	PBFI	P5	21-Apr-16	27	Red	x	1	0.631	99	99	IXZJ	YAGW	99	99	2	2000	1	3	1	IXZJ	X5	21-Apr-16	28	Red	e	1	0.9027	99	99	WTEZ	NQRI	999	999	3	650	1	3	1	WTEZ	E5	21-Apr-16	29	Red	b	1	1.0967	99	99	BCQJ	RPZW	9	9	1	650	1	3	1	BCQJ	B5	21-Apr-16	30	Red	a	0	0.6224	99	99	BOEZ	JGRW	99	99	2	650	1	3	1	BOEZ	O5	21-Apr-16	31	Red	z	1	0.9001	99	99	ZLNU	DHXE	9	9	1	650	1	3	1	ZLNU	Z5	21-Apr-16	32	Red	x	1	0.701	99	99	HGRX	AVOF	9999	9999	4	2000	1	3	1	HGRX	X5	21-Apr-16	1	Blue	r	0	1.5787	99	99	YMKS	PAJQ	999	999	3	650	1	3	1	YMKS	K5	21-Apr-16	2	Blue	k	1	0.7983	99	99	BKHI	CZJG	99	99	2	650	1	3	1	BKHI	K5	21-Apr-16	3	Blue	g	1	0.8885	99	99	NGIA	XCZQ	99	99	2	2000	1	3	1	NGIA	G5	21-Apr-16	4	Blue	a	1	1.0056	99	99	IALG	SRNF	99	99	2	650	1	3	1	IALG	A5	21-Apr-16	5	Blue	w	1	0.8636	99	99	MWPA	QOBI	99	99	2	2000	1	3	1	MWPA	W5	21-Apr-16	6	Blue	m	1	0.7624	99	99	ZPCM	XRJY	9999	9999	4	2000	1	3	1	ZPCM	M5	21-Apr-16	7	Blue	c	1	1.2213	99	99	MFNC	DLAG	9999	9999	4	650	1	3	1	MFNC	C5	21-Apr-16	8	Blue	k	1	0.902	99	99	GKLS	VJOA	99	99	2	650	1	3	1	GKLS	K5	21-Apr-16	9	Blue	m	1	0.7267	99	99	KZMS	GDYO	999	999	3	2000	1	3	1	KZMS	M5	21-Apr-16	10	Blue	k	0	1.0634	99	99	ZIDA	XSCF	9	9	1	650	1	3	1	ZIDA	Z5	21-Apr-16	11	Blue	d	1	0.889	99	99	IHND	SQCK	9999	9999	4	2000	1	3	1	IHND	D5	21-Apr-16	12	Blue	l	1	1.1027	99	99	LCIU	TYKH	9	9	1	2000	1	3	1	LCIU	L5	21-Apr-16	13	Blue	k	1	1.2511	99	99	KGTV	LAOE	9	9	1	2000	1	3	1	KGTV	K5	21-Apr-16	14	Blue	w	1	0.8443	99	99	KVWP	SIEH	999	999	3	650	1	3	1	KVWP	W5	21-Apr-16	15	Blue	d	0	0.9399	99	99	ZXKQ	DJIA	999	999	3	650	1	3	1	ZXKQ	K5	21-Apr-16	16	Blue	c	1	0.7481	99	99	XJAC	PKHG	9999	9999	4	2000	1	3	1	XJAC	C5	21-Apr-16	17	Blue	o	0	1.4953	99	99	NTQM	BYDL	9999	9999	4	650	1	3	1	NTQM	M5	21-Apr-16	18	Blue	s	0	2.7543	99	99	TJMX	WUBN	9999	9999	4	650	1	3	1	TJMX	X5	21-Apr-16	19	Blue	u	1	1.508	99	99	UCJT	DLAI	9	9	1	650	1	3	1	UCJT	U5	21-Apr-16	20	Blue	d	1	1.037	99	99	UDOV	ESJN	99	99	2	2000	1	3	1	UDOV	D5	21-Apr-16	21	Blue	p	0	2.5729	99	99	GQYO	BTZD	99	99	2	650	1	3	1	GQYO	Q5	21-Apr-16	22	Blue	g	1	1.5258	99	99	GHIK	TFPL	9	9	1	2000	1	3	1	GHIK	G5	21-Apr-16	23	Blue	b	1	0.9638	99	99	BOXI	MNGD	9	9	1	650	1	3	1	BOXI	B5	21-Apr-16	24	Blue	c	1	0.9815	99	99	CTFN	WIQE	9	9	1	650	1	3	1	CTFN	C5	21-Apr-16	25	Blue	s	1	0.2887	99	99	DBSQ	OGEN	999	999	3	2000	1	3	1	DBSQ	S5	21-Apr-16	26	Blue	y	1	0.9746	99	99	DQYN	HLIU	999	999	3	2000	1	3	1	DQYN	Y5	21-Apr-16	27	Blue	n	1	0.9444	99	99	TNGE	BDAJ	99	99	2	2000	1	3	1	TNGE	N5	21-Apr-16	28	Blue	c	1	1.5093	99	99	JPCX	HZDY	999	999	3	650	1	3	1	JPCX	C5	21-Apr-16	29	Blue	f	1	1.0079	99	99	PKCF	TISD	9999	9999	4	650	1	3	1	PKCF	F5	21-Apr-16	30	Blue	o	1	1.0392	99	99	OJBF	HVIL	9	9	1	2000	1	3	1	OJBF	O5	21-Apr-16	31	Blue	m	0	0.9535	99	99	UMIT	FLQG	999	999	3	2000	1	3	1	UMIT	I5	21-Apr-16	32	Blue	y	0	1.0569	99	99	NLSV	QYZU	9999	9999	4	2000	1	3	1	NLSV	V5	21-Apr-16	1	Red	r	1	0.8231	99	99	STKR	LWFN	9999	9999	4	650	1	3	1	STKR	R5	21-Apr-16	2	Red	r	1	0.7954	99	99	RAZQ	TGBX	9	9	1	650	1	3	1	RAZQ	R5	21-Apr-16	3	Red	j	1	0.8285	99	99	IJUQ	PCTN	99	99	2	650	1	3	1	IJUQ	J5	21-Apr-16	4	Red	t	0	2.2862	99	99	OFJX	LGMQ	9999	9999	4	650	1	3	1	OFJX	X5	21-Apr-16	5	Red	o	1	0.9099	99	99	QUXO	HKCP	9999	9999	4	2000	1	3	1	QUXO	O5	21-Apr-16	6	Red	i	1	1.4408	99	99	IYRF	UGSL	9	9	1	2000	1	3	1	IYRF	I5	21-Apr-16	7	Red	w	0	1.1555	99	99	UFCM	IGWB	99	99	2	650	1	3	1	UFCM	F5	21-Apr-16	8	Red	t	1	0.9132	99	99	UVTF	MAIL	999	999	3	2000	1	3	1	UVTF	T5	21-Apr-16	9	Red	b	0	1.0563	99	99	LSCI	NKBF	9999	9999	4	650	1	3	1	LSCI	I5	21-Apr-16	10	Red	r	1	0.8564	99	99	HCRY	ZENG	999	999	3	650	1	3	1	HCRY	R5	21-Apr-16	11	Red	v	0	8.6062	99	99	YKQL	RUJV	99	99	2	650	1	3	1	YKQL	K5	21-Apr-16	12	Red	a	1	1.1545	99	99	EGZA	XYUV	9999	9999	4	2000	1	3	1	EGZA	A5	21-Apr-16	13	Red	m	1	1.2164	99	99	IDFM	TSZU	9999	9999	4	650	1	3	1	IDFM	M5	21-Apr-16	14	Red	j	1	1.183	99	99	JLYD	RFAP	9	9	1	650	1	3	1	JLYD	J5	21-Apr-16	15	Red	a	1	1.3059	99	99	AQTF	WVMU	9	9	1	2000	1	3	1	AQTF	A5	21-Apr-16	16	Red	c	1	1.519	99	99	CNZS	KOMP	9	9	1	650	1	3	1	CNZS	C5	21-Apr-16	17	Red	d	1	1.4537	99	99	ODBK	TANF	99	99	2	2000	1	3	1	ODBK	D5	21-Apr-16	18	Red	b	1	1.5548	99	99	IKNB	ACMH	9999	9999	4	2000	1	3	1	IKNB	B5	21-Apr-16	19	Red	b	0	6.5517	99	99	DOJM	XGLT	9	9	1	2000	1	3	1	DOJM	D5	21-Apr-16	20	Red	f	0	1.6976	99	99	PFRA	ZDQC	999	999	3	650	1	3	1	PFRA	R5	21-Apr-16	21	Red	s	1	0.8656	99	99	YSHJ	UXGR	99	99	2	650	1	3	1	YSHJ	S5	21-Apr-16	22	Red	l	1	0.9085	99	99	KGIL	ZMQR	9999	9999	4	2000	1	3	1	KGIL	L5	21-Apr-16	23	Red	h	1	1.1454	99	99	YHSV	XUOG	99	99	2	2000	1	3	1	YHSV	H5	21-Apr-16	24	Red	k	1	0.9662	99	99	IKWD	FXUH	99	99	2	2000	1	3	1	IKWD	K5	21-Apr-16	25	Red	y	1	0.4679	99	99	WEYN	DCBQ	999	999	3	2000	1	3	1	WEYN	Y5	21-Apr-16	26	Red	i	1	1.0301	99	99	IGWL	NFJY	9	9	1	650	1	3	1	IGWL	I5	21-Apr-16	27	Red	z	0	0.9905	99	99	ZTUA	KOYF	999	999	3	650	1	3	1	ZTUA	U5	21-Apr-16	28	Red	f	1	1.0041	99	99	UTFS	JGOW	999	999	3	2000	1	3	1	UTFS	F5	21-Apr-16	29	Red	i	1	0.9824	99	99	PIOJ	AXMC	99	99	2	2000	1	3	1	PIOJ	I5	21-Apr-16	30	Red	l	1	1.5048	99	99	JMLR	GSIH	999	999	3	650	1	3	1	JMLR	L5	21-Apr-16	31	Red	d	1	0.8237	99	99	DQYT	KNIC	9	9	1	2000	1	3	1	DQYT	D5	21-Apr-16	32	Red	o	1	0.9203	99	99	XAOR	YMTS	999	999	3	2000	1	3	1	XAOR	O5	21-Apr-16	1	Blue	y	1	0.8285	99	99	YPKC	BHZA	9	9	1	2000	1	3	1	YPKC	Y5	21-Apr-16	2	Blue	x	1	0.368	99	99	DASX	NLRE	9999	9999	4	2000	1	3	1	DASX	X5	21-Apr-16	3	Blue	l	0	1.2893	99	99	PIHX	OAUW	99	99	2	2000	1	3	1	PIHX	I5	21-Apr-16	4	Blue	v	0	2.7347	99	99	HDIX	KVRN	99	99	2	650	1	3	1	HDIX	D5	21-Apr-16	5	Blue	p	0	4.8847	99	99	PWMQ	TLAU	999	999	3	650	1	3	1	PWMQ	M5	21-Apr-16	6	Blue	t	0	7.0699	99	99	OLGS	KCBV	9	9	1	2000	1	3	1	OLGS	O5	21-Apr-16	7	Blue	z	0	0.899	99	99	ZGIQ	USKR	99	99	2	650	1	3	1	ZGIQ	G5	21-Apr-16	8	Blue	y	1	0.9682	99	99	KYFG	AQUV	99	99	2	650	1	3	1	KYFG	Y5	21-Apr-16	9	Blue	g	1	0.9535	99	99	GQMO	ZVSA	9	9	1	2000	1	3	1	GQMO	G5	21-Apr-16	10	Blue	p	1	0.8242	99	99	BKMP	JFIR	9999	9999	4	2000	1	3	1	BKMP	P5	21-Apr-16	11	Blue	v	0	0.4989	99	99	LUCH	BTFV	9999	9999	4	2000	1	3	1	LUCH	H5	21-Apr-16	12	Blue	u	1	0.818	99	99	JTBU	VNIX	9999	9999	4	2000	1	3	1	JTBU	U5	21-Apr-16	13	Blue	u	0	2.021	99	99	NGIO	PHSL	9999	9999	4	650	1	3	1	NGIO	O5	21-Apr-16	14	Blue	x	1	0.7145	99	99	UXEQ	LVRG	99	99	2	2000	1	3	1	UXEQ	X5	21-Apr-16	15	Blue	j	1	0.9169	99	99	JSXD	YMVU	9	9	1	650	1	3	1	JSXD	J5	21-Apr-16	16	Blue	w	1	0.6903	99	99	NTWV	ISBX	999	999	3	2000	1	3	1	NTWV	W5	21-Apr-16	17	Blue	d	1	1.1253	99	99	DRQB	WHIC	9	9	1	650	1	3	1	DRQB	D5	21-Apr-16	18	Blue	o	0	1.2999	99	99	LEOC	HFPN	9999	9999	4	650	1	3	1	LEOC	C5	21-Apr-16	19	Blue	z	1	1.5943	99	99	ZQPD	SXHK	9	9	1	650	1	3	1	ZQPD	Z5	21-Apr-16	20	Blue	t	0	0.8558	99	99	JQNW	FTRG	999	999	3	650	1	3	1	JQNW	N5	21-Apr-16	21	Blue	f	1	0.832	99	99	SBFR	CITN	999	999	3	2000	1	3	1	SBFR	F5	21-Apr-16	22	Blue	o	1	1.0088	99	99	GVOS	YDCK	999	999	3	2000	1	3	1	GVOS	O5	21-Apr-16	23	Blue	y	0	1.0597	99	99	XJUH	ISLY	99	99	2	2000	1	3	1	XJUH	J5	21-Apr-16	24	Blue	y	0	0.8355	99	99	VHNI	KTFP	999	999	3	650	1	3	1	VHNI	N5	21-Apr-16	25	Blue	t	0	1.4661	99	99	IHQO	TFUE	99	99	2	650	1	3	1	IHQO	H5	21-Apr-16	26	Blue	o	0	1.003	99	99	QRCA	BMEZ	9	9	1	650	1	3	1	QRCA	Q5	21-Apr-16	27	Blue	o	0	1.0101	99	99	QBZR	UEST	9	9	1	2000	1	3	1	QBZR	Q5	21-Apr-16	28	Blue	p	0	1.0789	99	99	IPQA	ERVG	999	999	3	2000	1	3	1	IPQA	Q5	21-Apr-16	29	Blue	b	0	1.8545	99	99	IRMH	ZWUB	9999	9999	4	650	1	3	1	IRMH	H5	21-Apr-16	30	Blue	d	1	0.7809	99	99	IOZD	WAKF	9999	9999	4	650	1	3	1	IOZD	D5	21-Apr-16	31	Blue	m	0	1.2785	99	99	TMBL	HKXU	999	999	3	650	1	3	1	TMBL	B5	21-Apr-16	32	Blue	t	0	2.1195	99	99	VSQM	IOTY	99	99	2	2000	1	3	1	VSQM	S5	21-Apr-16	1	Red	d	0	0.4178	M	D	VUMK	HWDA	rrr	bbb	3	650	1	6	0	99	995	21-Apr-16	2	Red	l	1	0.7935	Y	L	XHJY	CWBL	bbbb	rrrr	4	650	1	6	0	99	995	21-Apr-16	3	Red	n	1	1.1216	N	J	NQDY	JHTW	r	b	1	2000	1	6	0	99	995	21-Apr-16	4	Red	e	1	0.8384	E	I	AEUR	ZIYW	br	rb	2	2000	1	6	0	99	995	21-Apr-16	5	Red	b	1	1.0772	B	C	VNBK	YJCA	rbr	brb	3	650	1	6	0	99	995	21-Apr-16	6	Red	l	1	0.8791	G	L	EAGP	WTLS	rrb	bbr	3	2000	1	6	0	99	995	21-Apr-16	7	Red	d	1	0.8758	O	D	MOGR	YDHC	bb	rr	2	650	1	6	0	99	995	21-Apr-16	8	Red	o	1	0.7561	O	Q	MESO	NIJQ	bbrr	rrbb	4	2000	1	6	0	99	995	21-Apr-16	9	Red	i	1	1.1009	I	T	IUOK	TAXC	r	b	1	2000	1	6	0	99	995	21-Apr-16	10	Red	k	1	0.8782	F	K	ERMF	PQGK	rrbb	bbrr	4	2000	1	6	0	99	995	21-Apr-16	11	Red	a	1	1.2232	O	A	DBOR	QGAV	rbb	brr	3	2000	1	6	0	99	995	21-Apr-16	12	Red	w	1	1.6711	N	W	VNOD	BWHG	rb	br	2	650	1	6	0	99	995	21-Apr-16	13	Red	p	0	1.2732	O	W	EROM	CPWJ	rrr	bbb	3	650	1	6	0	99	995	21-Apr-16	14	Red	a	1	0.9101	A	Y	IJFA	XHVY	rrrr	bbbb	4	2000	1	6	0	99	995	21-Apr-16	15	Red	h	1	0.804	H	L	TXJH	EPSL	bbrr	rrbb	4	650	1	6	0	99	995	21-Apr-16	16	Red	g	1	0.9137	G	I	GTUY	IWEK	r	b	1	2000	1	6	0	99	995	21-Apr-16	17	Red	i	1	0.9561	I	K	DOYI	MBSK	rrrr	bbbb	4	2000	1	6	0	99	995	21-Apr-16	18	Red	j	1	1.0391	I	J	KPIN	URJQ	brb	rbr	3	2000	1	6	0	99	995	21-Apr-16	19	Red	k	1	0.8868	U	K	GUPY	FKRJ	bb	rr	2	2000	1	6	0	99	995	21-Apr-16	20	Red	b	1	1.2763	W	B	WUJC	BHKM	b	r	1	650	1	6	0	99	995	21-Apr-16	21	Red	o	1	1.3948	O	Q	OXEJ	QKNM	r	b	1	2000	1	6	0	99	995	21-Apr-16	22	Red	w	0	1.0527	K	M	GKHS	AMFL	bb	rr	2	650	1	6	0	99	995	21-Apr-16	23	Red	f	1	0.7957	R	F	RMYT	FBWO	b	r	1	650	1	6	0	99	995	21-Apr-16	24	Red	s	1	0.5245	S	F	VQSZ	PIFC	brr	rbb	3	650	1	6	0	99	995	21-Apr-16	25	Red	a	0	0.4478	Z	D	PSEZ	BQCD	brbb	rbrr	4	650	1	6	0	99	995	21-Apr-16	26	Red	j	1	1.3318	J	V	JAKZ	VDPU	r	b	1	650	1	6	0	99	995	21-Apr-16	27	Red	e	1	0.7702	E	I	LYDE	OWSI	rbrr	brbb	4	650	1	6	0	99	995	21-Apr-16	28	Red	s	1	0.4291	S	R	USDH	WRLI	rr	bb	2	2000	1	6	0	99	995	21-Apr-16	29	Red	o	1	1.4239	O	Z	OFQJ	ZHBX	r	b	1	650	1	6	0	99	995	21-Apr-16	30	Red	c	1	0.3728	C	I	QACW	TYIR	rbr	brb	3	2000	1	6	0	99	995	21-Apr-16	31	Red	m	0	1.1168	C	Q	DCTL	OQXN	rb	br	2	2000	1	6	0	99	995	21-Apr-16	32	Red	k	0	0.9532	X	N	FXDS	CNMK	rb	br	2	650	1	6	0	99	995	21-Apr-16	1	Blue	o	0	1.4047	D	M	NYDK	HGMU	rrb	bbr	3	2000	1	6	0	99	995	21-Apr-16	2	Blue	y	1	0.8087	Y	D	ROYN	LSDP	bbb	rrr	3	2000	1	6	0	99	995	21-Apr-16	3	Blue	r	1	0.7703	D	R	SADM	KJRB	rrr	bbb	3	650	1	6	0	99	995	21-Apr-16	4	Blue	m	1	0.9634	M	U	SMJE	AUHG	rb	br	2	650	1	6	0	99	995	21-Apr-16	5	Blue	k	1	0.8532	T	K	LOTJ	VDKF	rbr	brb	3	650	1	6	0	99	995	21-Apr-16	6	Blue	s	1	0.424	S	T	HIDS	XMOT	bbbb	rrrr	4	650	1	6	0	99	995	21-Apr-16	7	Blue	d	1	0.3282	D	M	GNOD	AKRM	brrb	rbbr	4	2000	1	6	0	99	995	21-Apr-16	8	Blue	j	1	0.9435	V	J	UVPS	OJCE	rr	bb	2	650	1	6	0	99	995	21-Apr-16	9	Blue	o	0	1.1452	D	U	DGZC	URTX	b	r	1	2000	1	6	0	99	995	21-Apr-16	10	Blue	w	1	1.0692	W	T	XWQC	FTYI	bb	rr	2	650	1	6	0	99	995	21-Apr-16	11	Blue	z	1	0.7204	G	Z	VKIG	QAJZ	brrr	rbbb	4	2000	1	6	0	99	995	21-Apr-16	12	Blue	v	1	0.8113	V	K	XVQI	FKNT	bb	rr	2	2000	1	6	0	99	995	21-Apr-16	13	Blue	p	1	0.9506	S	P	GVNS	EYHP	rrbr	bbrb	4	650	1	6	0	99	995	21-Apr-16	14	Blue	v	1	0.763	V	U	FNVW	MAUR	rrb	bbr	3	2000	1	6	0	99	995	21-Apr-16	15	Blue	l	1	1.1555	L	V	LSAF	VKJU	b	r	1	650	1	6	0	99	995	21-Apr-16	16	Blue	y	1	0.9577	Y	B	YFPI	BOAV	b	r	1	2000	1	6	0	99	995	21-Apr-16	17	Blue	a	0	3.3521	C	I	CKVJ	IFGB	r	b	1	2000	1	6	0	99	995	21-Apr-16	18	Blue	b	1	0.9176	K	B	XKDG	IBSZ	rr	bb	2	650	1	6	0	99	995	21-Apr-16	19	Blue	k	1	0.8761	K	F	DSGK	LAWF	brbb	rbrr	4	650	1	6	0	99	995	21-Apr-16	20	Blue	n	1	2.1206	C	N	CQBH	NLYG	r	b	1	650	1	6	0	99	995	21-Apr-16	21	Blue	o	1	1.2184	O	R	DOIU	ZRYP	bb	rr	2	2000	1	6	0	99	995	21-Apr-16	22	Blue	x	1	0.9095	C	X	QSCN	MRXO	brr	rbb	3	650	1	6	0	99	995	21-Apr-16	23	Blue	w	0	1.0486	F	B	EFKY	SBAD	br	rb	2	2000	1	6	0	99	995	21-Apr-16	24	Blue	t	1	1.3041	N	T	NGSP	TJAI	r	b	1	650	1	6	0	99	995	21-Apr-16	25	Blue	z	1	0.8193	Z	X	VTJZ	NIWX	rbrb	brbr	4	2000	1	6	0	99	995	21-Apr-16	26	Blue	c	1	0.6437	C	L	URCX	HBLI	rrb	bbr	3	2000	1	6	0	99	995	21-Apr-16	27	Blue	k	0	1.0807	M	W	MEPY	WFSQ	b	r	1	2000	1	6	0	99	995	21-Apr-16	28	Blue	h	1	0.7446	H	S	POVH	AQZS	bbbb	rrrr	4	650	1	6	0	99	995	21-Apr-16	29	Blue	v	1	1.0102	V	G	VOSP	GXYL	b	r	1	650	1	6	0	99	995	21-Apr-16	30	Blue	u	1	0.8298	S	U	AXIS	HFKU	bbrr	rrbb	4	2000	1	6	0	99	995	21-Apr-16	31	Blue	w	0	1.1098	D	S	HVDU	ZFSQ	bbr	rrb	3	650	1	6	0	99	995	21-Apr-16	32	Blue	j	1	0.9487	V	J	BVZM	NJAC	rr	bb	2	2000	1	6	0	99	995	21-Apr-16	1	Red	o	0	0.9035	M	O	FNIM	WHYO	rbrr	brbb	4	2000	1	6	0	99	995	21-Apr-16	2	Red	b	0	0.9808	N	C	ABNZ	KXCE	brb	rbr	3	650	1	6	0	99	995	21-Apr-16	3	Red	j	1	0.7551	J	K	VDQJ	PMOK	rbrr	brbb	4	2000	1	6	0	99	995	21-Apr-16	4	Red	w	0	0.5963	J	X	WJUY	OXZS	rb	br	2	2000	1	6	0	99	995	21-Apr-16	5	Red	o	1	1.0104	O	Z	EOHT	QZMV	rr	bb	2	650	1	6	0	99	995	21-Apr-16	6	Red	y	1	0.7204	Y	G	KRZY	JAWG	rbbr	brrb	4	2000	1	6	0	99	995	21-Apr-16	7	Red	f	1	0.8024	J	F	JLYR	FWEG	b	r	1	650	1	6	0	99	995	21-Apr-16	8	Red	a	1	0.6493	T	A	TBGY	AJWR	b	r	1	2000	1	6	0	99	995	21-Apr-16	9	Red	l	1	0.7205	L	J	SFDL	BCQJ	rbrr	brbb	4	650	1	6	0	99	995	21-Apr-16	10	Red	e	1	0.8866	S	E	RDSB	KYEF	bbb	rrr	3	2000	1	6	0	99	995	21-Apr-16	11	Red	w	1	0.9724	I	W	VEIF	BPWY	bbb	rrr	3	650	1	6	0	99	995	21-Apr-16	12	Red	l	1	1.2778	Z	L	GZTV	YLCM	rb	br	2	650	1	6	0	99	995	21-Apr-16	13	Red	d	1	0.4442	C	D	PCBK	YDLN	rb	br	2	650	1	6	0	99	995	21-Apr-16	14	Red	s	1	0.8397	I	S	IAXV	SDTJ	b	r	1	650	1	6	0	99	995	21-Apr-16	15	Red	o	1	1.3889	T	O	TYGF	OMUL	b	r	1	650	1	6	0	99	995	21-Apr-16	16	Red	w	0	0.5464	A	Z	TEUA	JYVZ	rrrb	bbbr	4	650	1	6	0	99	995	21-Apr-16	17	Red	l	1	0.8815	P	L	PVXZ	LHUQ	b	r	1	2000	1	6	0	99	995	21-Apr-16	18	Red	w	0	0.6007	H	M	EQFH	OBXM	brbb	rbrr	4	650	1	6	0	99	995	21-Apr-16	19	Red	g	1	0.7837	I	G	QIJR	HGFW	bb	rr	2	650	1	6	0	99	995	21-Apr-16	20	Red	w	1	0.4965	W	O	MWXR	QOEC	br	rb	2	2000	1	6	0	99	995	21-Apr-16	21	Red	f	1	0.908	G	F	GYBV	FZPX	b	r	1	2000	1	6	0	99	995	21-Apr-16	22	Red	x	1	0.9873	X	A	ZGRX	WYLA	rbrr	brbb	4	2000	1	6	0	99	995	21-Apr-16	23	Red	t	1	1.1066	T	J	TNRU	JVZO	r	b	1	650	1	6	0	99	995	21-Apr-16	24	Red	w	0	0.5304	Q	P	KOQY	VEPW	rrb	bbr	3	2000	1	6	0	99	995	21-Apr-16	25	Red	b	0	0.5906	W	B	JFDW	STQB	rbbr	brrb	4	650	1	6	0	99	995	21-Apr-16	26	Red	j	0	1.2792	W	N	LZWK	CJNF	bbb	rrr	3	650	1	6	0	99	995	21-Apr-16	27	Red	g	1	0.7203	G	M	BEGU	RIMV	brr	rbb	3	2000	1	6	0	99	995	21-Apr-16	28	Red	f	1	1.0214	F	H	OJFI	XMHW	brr	rbb	3	650	1	6	0	99	995	21-Apr-16	29	Red	t	1	0.8051	T	I	ETHJ	KIXP	br	rb	2	2000	1	6	0	99	995	21-Apr-16	30	Red	s	1	0.6926	S	N	SFDQ	NLMO	r	b	1	2000	1	6	0	99	995	21-Apr-16	31	Red	f	1	0.3868	F	M	SCFY	EKMA	brr	rbb	3	2000	1	6	0	99	995	21-Apr-16	32	Red	e	0	0.7605	G	C	SGRU	BCPD	br	rb	2	2000	1	6	0	99	995	21-Apr-16	1	Blue	c	1	1.318	C	G	CTZI	GRDK	b	r	1	650	1	6	0	99	995	21-Apr-16	2	Blue	w	1	0.4475	Q	W	AFTQ	ZJMW	rbbr	brrb	4	2000	1	6	0	99	995	21-Apr-16	3	Blue	y	1	0.8543	I	Y	STIP	VBYZ	brr	rbb	3	650	1	6	0	99	995	21-Apr-16	4	Blue	v	0	0.8702	I	N	YQIE	OWND	rrr	bbb	3	2000	1	6	0	99	995	21-Apr-16	5	Blue	z	1	0.383	Q	Z	TMFQ	HBEZ	rrrr	bbbb	4	2000	1	6	0	99	995	21-Apr-16	6	Blue	w	1	1.2065	A	W	QMAV	BYWE	bbr	rrb	3	650	1	6	0	99	995	21-Apr-16	7	Blue	t	0	13.1695	V	I	JVKC	OIHE	bb	rr	2	650	1	6	0	99	995	21-Apr-16	8	Blue	w	1	1.5903	K	W	KZQT	WFPY	r	b	1	650	1	6	0	99	995	21-Apr-16	9	Blue	i	1	0.8767	P	I	CMPS	WOIA	rrr	bbb	3	2000	1	6	0	99	995	21-Apr-16	10	Blue	f	0	1.0688	N	O	HWYN	RSFO	rbrb	brbr	4	650	1	6	0	99	995	21-Apr-16	11	Blue	l	1	0.9548	J	L	JWZA	LKQI	r	b	1	2000	1	6	0	99	995	21-Apr-16	12	Blue	c	1	0.8312	N	C	DFYN	PRMC	bbrr	rrbb	4	650	1	6	0	99	995	21-Apr-16	13	Blue	w	0	0.8763	B	P	AMGB	CFJP	bbrb	rrbr	4	2000	1	6	0	99	995	21-Apr-16	14	Blue	e	1	0.5551	E	H	OSEZ	APHX	brb	rbr	3	2000	1	6	0	99	995	21-Apr-16	15	Blue	l	1	1.2273	L	H	GLNW	RHZS	bb	rr	2	2000	1	6	0	99	995	21-Apr-16	16	Blue	y	1	0.4729	N	Y	BTVN	SJWY	rrbr	bbrb	4	2000	1	6	0	99	995	21-Apr-16	17	Blue	t	1	1.0755	T	O	TRNI	OXPW	b	r	1	650	1	6	0	99	995	21-Apr-16	18	Blue	r	1	0.9781	R	K	RGMQ	KLAN	b	r	1	2000	1	6	0	99	995	21-Apr-16	19	Blue	k	0	0.9949	B	P	IQBC	AKPR	rrr	bbb	3	650	1	6	0	99	995	21-Apr-16	20	Blue	a	0	0.7352	G	A	FBNG	YZRA	bbbb	rrrr	4	650	1	6	0	99	995	21-Apr-16	21	Blue	j	1	0.7794	H	J	SYZH	IRTJ	brrr	rbbb	4	650	1	6	0	99	995	21-Apr-16	22	Blue	c	1	1.1645	C	D	BCTY	ADQL	bb	rr	2	650	1	6	0	99	995	21-Apr-16	23	Blue	a	0	0.5362	V	Y	WVMF	RYIC	rb	br	2	650	1	6	0	99	995	21-Apr-16	24	Blue	r	0	0.8817	T	Q	MTIS	EQUR	br	rb	2	2000	1	6	0	99	995	21-Apr-16	25	Blue	e	1	0.5675	W	E	KWXN	GEVD	br	rb	2	2000	1	6	0	99	995	21-Apr-16	26	Blue	p	1	0.831	Y	P	LYQG	BPWN	rr	bb	2	2000	1	6	0	99	995	21-Apr-16	27	Blue	k	0	0.8224	M	Q	VMYC	NQDH	bb	rr	2	650	1	6	0	99	995	21-Apr-16	28	Blue	q	1	0.8379	S	Q	IASD	EYQR	rrr	bbb	3	650	1	6	0	99	995	21-Apr-16	29	Blue	n	1	1.6831	N	V	NGDH	VLWJ	b	r	1	650	1	6	0	99	995	21-Apr-16	30	Blue	s	1	0.3353	V	S	HXVJ	KESF	bbr	rrb	3	2000	1	6	0	99	995	21-Apr-16	31	Blue	t	1	0.9439	T	F	TSGC	FJKM	b	r	1	2000	1	6	0	99	995	21-Apr-16	32	Blue	b	1	1.0485	Z	B	ZMOA	BXGS	r	b	1	2000	1	6	0	99	996	21-Apr-16	1	Blue	c	1	1.6168	C	M	ZCGP	LMUR	bb	rr	2	650	1	6	0	99	996	21-Apr-16	2	Blue	t	1	1.6605	R	T	ZRVX	ATNW	rr	bb	2	650	1	6	0	99	996	21-Apr-16	3	Blue	e	0	1.1443	M	E	GJMR	HDES	rrb	bbr	3	650	1	6	0	99	996	21-Apr-16	4	Blue	w	0	1.3808	J	V	QCJY	TGVX	bbr	rrb	3	650	1	6	0	99	996	21-Apr-16	5	Blue	q	0	2.3437	T	G	TJRL	GYMP	r	b	1	650	1	6	0	99	996	21-Apr-16	6	Blue	j	1	0.8857	V	J	XEAV	YHTJ	rrrr	bbbb	4	2000	1	6	0	99	996	21-Apr-16	7	Blue	d	1	1.382	H	D	WGHV	CEDF	bbr	rrb	3	2000	1	6	0	99	996	21-Apr-16	8	Blue	q	0	1.0746	O	D	QYVO	GFSD	rbrr	brbb	4	650	1	6	0	99	996	21-Apr-16	9	Blue	y	1	1.6021	Y	A	TYBV	EAPK	bb	rr	2	2000	1	6	0	99	996	21-Apr-16	10	Blue	t	1	1.3419	E	T	VSEO	ZFTJ	bbr	rrb	3	650	1	6	0	99	996	21-Apr-16	11	Blue	h	0	1.5402	V	Z	HVYL	WZOD	bb	rr	2	2000	1	6	0	99	996	21-Apr-16	12	Blue	k	1	1.4097	K	Q	KEDA	QUJP	b	r	1	2000	1	6	0	99	996	21-Apr-16	13	Blue	k	1	0.9349	P	K	TAPD	FJKB	bbr	rrb	3	2000	1	6	0	99	996	21-Apr-16	14	Blue	g	1	1.5522	Z	G	ZBFY	GOVA	r	b	1	2000	1	6	0	99	996	21-Apr-16	15	Blue	v	1	2.4913	V	D	KQXV	ZBJD	brbb	rbrr	4	2000	1	6	0	99	996	21-Apr-16	16	Blue	d	1	1.8537	D	O	DIJE	ONMB	b	r	1	650	1	6	0	99	996	21-Apr-16	17	Blue	l	1	1.0514	R	L	JUHR	TCZL	bbrr	rrbb	4	650	1	6	0	99	996	21-Apr-16	18	Blue	k	1	1.3649	X	K	TWRX	SJDK	rbbr	brrb	4	650	1	6	0	99	996	21-Apr-16	19	Blue	k	1	1.9446	K	U	KZDP	UQFC	b	r	1	650	1	6	0	99	996	21-Apr-16	20	Blue	f	1	1.8093	T	F	ATZE	BFCM	br	rb	2	650	1	6	0	99	996	21-Apr-16	21	Blue	a	1	1.022	A	K	BAYV	UKGC	bb	rr	2	2000	1	6	0	99	996	21-Apr-16	22	Blue	c	0	1.7098	N	J	VNSE	CJOG	rr	bb	2	650	1	6	0	99	996	21-Apr-16	23	Blue	i	1	1.7591	I	H	OYID	BQHS	rbb	brr	3	650	1	6	0	99	996	21-Apr-16	24	Blue	b	1	1.2901	C	B	ZGKC	WTNB	brbr	rbrb	4	2000	1	6	0	99	996	21-Apr-16	25	Blue	z	1	1.244	F	Z	TMWF	GSEZ	bbbr	rrrb	4	2000	1	6	0	99	996	21-Apr-16	26	Blue	w	1	1.8071	W	M	AGWT	ESML	rrb	bbr	3	2000	1	6	0	99	996	21-Apr-16	27	Blue	i	1	3.8743	Q	I	QGKD	IJXP	r	b	1	650	1	6	0	99	996	21-Apr-16	28	Blue	i	1	1.1262	I	S	IBNF	SOQY	b	r	1	2000	1	6	0	99	996	21-Apr-16	29	Blue	m	0	1.0299	V	O	JEXV	GAYO	bbrr	rrbb	4	650	1	6	0	99	996	21-Apr-16	30	Blue	d	1	1.384	D	F	EJDB	RXFU	bbb	rrr	3	2000	1	6	0	99	996	21-Apr-16	31	Blue	z	1	1.0511	J	Z	WJOR	PZGD	br	rb	2	2000	1	6	0	99	996	21-Apr-16	32	Blue	t	1	1.4185	Y	T	YOWC	TUQL	r	b	1	2000	1	6	0	99	996	21-Apr-16	1	Red	o	1	1.2498	H	O	EHXL	POBS	bb	rr	2	2000	1	6	0	99	996	21-Apr-16	2	Red	j	1	0.7732	J	E	PKJQ	WGET	rbr	brb	3	2000	1	6	0	99	996	21-Apr-16	3	Red	z	1	1.5414	A	Z	ACJW	ZOMN	b	r	1	650	1	6	0	99	996	21-Apr-16	4	Red	l	1	0.9392	I	L	BIUG	TLJW	bb	rr	2	2000	1	6	0	99	996	21-Apr-16	5	Red	u	1	0.8621	K	U	KSRP	UQWJ	b	r	1	2000	1	6	0	99	996	21-Apr-16	6	Red	a	1	0.9664	A	O	YZAK	NEOP	brr	rbb	3	2000	1	6	0	99	996	21-Apr-16	7	Red	u	0	1.6401	O	R	IOJX	URNC	bb	rr	2	650	1	6	0	99	996	21-Apr-16	8	Red	l	1	1.0765	Y	L	SFYW	JELU	rrb	bbr	3	2000	1	6	0	99	996	21-Apr-16	9	Red	r	1	2.7291	R	A	RGZF	ALCP	r	b	1	650	1	6	0	99	996	21-Apr-16	10	Red	o	1	1.0468	D	O	ZHDG	WRON	rbb	brr	3	650	1	6	0	99	996	21-Apr-16	11	Red	l	1	1.1768	L	D	GTSL	AHBD	brrr	rbbb	4	650	1	6	0	99	996	21-Apr-16	12	Red	h	1	1.4189	H	F	HRTC	FKZS	r	b	1	2000	1	6	0	99	996	21-Apr-16	13	Red	e	0	0.4417	M	J	EPSM	HFWJ	rbbb	brrr	4	2000	1	6	0	99	996	21-Apr-16	14	Red	e	0	1.1758	U	C	EKUQ	OXCR	bbr	rrb	3	2000	1	6	0	99	996	21-Apr-16	15	Red	b	1	1.4984	F	B	ZFRI	TBCL	bb	rr	2	2000	1	6	0	99	996	21-Apr-16	16	Red	i	0	2.1238	X	V	QAXC	IRVJ	brb	rbr	3	650	1	6	0	99	996	21-Apr-16	17	Red	h	0	1.7817	Z	X	HZNF	KXOU	rb	br	2	650	1	6	0	99	996	21-Apr-16	18	Red	l	0	1.5062	T	B	UTVM	LBGC	br	rb	2	650	1	6	0	99	996	21-Apr-16	19	Red	g	1	1.9365	G	X	GVLP	XEBZ	r	b	1	650	1	6	0	99	996	21-Apr-16	20	Red	t	1	1.7223	V	T	XQVI	NATZ	rbb	brr	3	650	1	6	0	99	996	21-Apr-16	21	Red	m	1	1.2822	M	C	JMOR	ECFQ	rr	bb	2	2000	1	6	0	99	996	21-Apr-16	22	Red	d	0	1.5984	N	Q	PEXN	CDRQ	bbrr	rrbb	4	2000	1	6	0	99	996	21-Apr-16	23	Red	i	1	1.555	K	I	MGKW	BOIT	rrb	bbr	3	650	1	6	0	99	996	21-Apr-16	24	Red	t	1	2.2068	N	T	NLES	TXFW	b	r	1	650	1	6	0	99	996	21-Apr-16	25	Red	d	1	1.4847	C	D	CZUJ	DYSM	b	r	1	2000	1	6	0	99	996	21-Apr-16	26	Red	d	1	1.25	D	X	YOFD	MTPX	bbbr	rrrb	4	2000	1	6	0	99	996	21-Apr-16	27	Red	c	0	1.6677	K	Z	WYBK	QACZ	brbr	rbrb	4	650	1	6	0	99	996	21-Apr-16	28	Red	g	1	1.1603	G	K	JZLG	EVWK	bbrr	rrbb	4	650	1	6	0	99	996	21-Apr-16	29	Red	k	0	2.2533	L	Y	AUFL	GBKY	bbbr	rrrb	4	650	1	6	0	99	996	21-Apr-16	30	Red	p	1	0.9709	X	P	XOLN	PAVR	b	r	1	2000	1	6	0	99	996	21-Apr-16	31	Red	i	1	1.2173	I	R	UWCI	TZOR	brbr	rbrb	4	2000	1	6	0	99	996	21-Apr-16	32	Red	s	0	1.9541	V	C	SVWX	DCHL	rr	bb	2	650	1	6	0	99	996	21-Apr-16	1	Blue	q	1	1.0827	Q	O	BQZI	JOGV	rb	br	2	2000	1	6	0	99	996	21-Apr-16	2	Blue	z	1	1.1803	Z	K	GHEZ	BOQK	rrbb	bbrr	4	650	1	6	0	99	996	21-Apr-16	3	Blue	p	1	0.9743	P	K	PCWM	KBXH	b	r	1	2000	1	6	0	99	996	21-Apr-16	4	Blue	q	1	0.8669	K	Q	XCWK	ONZQ	rbbr	brrb	4	2000	1	6	0	99	996	21-Apr-16	5	Blue	q	1	1.1065	Q	R	XQPU	WRVD	rb	br	2	2000	1	6	0	99	996	21-Apr-16	6	Blue	d	1	1.6706	D	Z	DQRX	ZJTF	b	r	1	650	1	6	0	99	996	21-Apr-16	7	Blue	h	1	1.1746	J	H	JNPT	HZMR	r	b	1	2000	1	6	0	99	996	21-Apr-16	8	Blue	f	1	1.8565	K	F	KDAU	FNPY	r	b	1	650	1	6	0	99	996	21-Apr-16	9	Blue	j	1	1.2783	U	J	SAHU	IGQJ	bbrr	rrbb	4	650	1	6	0	99	996	21-Apr-16	10	Blue	x	1	2.3634	X	E	XFYB	EKQO	b	r	1	650	1	6	0	99	996	21-Apr-16	11	Blue	a	1	0.9297	A	F	RLMA	GNHF	rbbb	brrr	4	2000	1	6	0	99	996	21-Apr-16	12	Blue	j	1	3.9012	X	J	BZXL	ORJF	brr	rbb	3	650	1	6	0	99	996	21-Apr-16	13	Blue	b	0	2.8732	D	T	FDEQ	BTOJ	rb	br	2	2000	1	6	0	99	996	21-Apr-16	14	Blue	n	0	1.4597	X	T	MNXF	VGTR	bbb	rrr	3	2000	1	6	0	99	996	21-Apr-16	15	Blue	j	0	2.7664	L	U	QCLM	AJUW	brr	rbb	3	650	1	6	0	99	996	21-Apr-16	16	Blue	y	1	1.0081	J	Y	JWRO	YCLG	r	b	1	2000	1	6	0	99	996	21-Apr-16	17	Blue	l	1	1.9732	Y	L	QPVY	NSUL	rrbr	bbrb	4	2000	1	6	0	99	996	21-Apr-16	18	Blue	g	0	1.395	J	V	QJDB	GVMR	rb	br	2	650	1	6	0	99	996	21-Apr-16	19	Blue	l	1	1.3521	C	L	YNCE	DTLX	bbr	rrb	3	650	1	6	0	99	996	21-Apr-16	20	Blue	f	1	1.0333	F	C	XYIF	NAEC	brbb	rbrr	4	2000	1	6	0	99	996	21-Apr-16	21	Blue	k	1	0.9866	K	D	CBKZ	LJDS	rbb	brr	3	2000	1	6	0	99	996	21-Apr-16	22	Blue	q	0	1.4291	W	V	GWTU	QVHE	rb	br	2	650	1	6	0	99	996	21-Apr-16	23	Blue	f	1	1.1691	J	F	TGPJ	YLZF	brrr	rbbb	4	650	1	6	0	99	996	21-Apr-16	24	Blue	f	1	1.1737	F	C	ZWFU	JLCR	brb	rbr	3	650	1	6	0	99	996	21-Apr-16	25	Blue	y	1	1.3661	A	Y	AVCM	YSNL	r	b	1	650	1	6	0	99	996	21-Apr-16	26	Blue	f	1	1.0226	F	P	LRFQ	WTPX	rbb	brr	3	2000	1	6	0	99	996	21-Apr-16	27	Blue	h	1	1.8448	H	P	HGWI	PYSU	b	r	1	2000	1	6	0	99	996	21-Apr-16	28	Blue	u	1	1.5623	U	C	WPUQ	ZSCF	brb	rbr	3	2000	1	6	0	99	996	21-Apr-16	29	Blue	u	1	1.2905	U	Q	KSMU	VLXQ	rbbb	brrr	4	650	1	6	0	99	996	21-Apr-16	30	Blue	w	1	1.5123	W	C	XWAH	BCSO	bb	rr	2	650	1	6	0	99	996	21-Apr-16	31	Blue	d	1	1.2573	D	C	YDFN	VCHG	bb	rr	2	2000	1	6	0	99	996	21-Apr-16	32	Blue	d	0	1.0155	U	W	VUHY	DWZE	rb	br	2	650	1	6	0	99	996	21-Apr-16	1	Red	h	1	1.1735	H	V	OHYN	XVSK	rr	bb	2	2000	1	6	0	99	996	21-Apr-16	2	Red	r	1	0.6074	R	H	RSKQ	HPCT	r	b	1	2000	1	6	0	99	996	21-Apr-16	3	Red	a	0	0.762	R	T	MHWR	NQAT	bbbr	rrrb	4	650	1	6	0	99	996	21-Apr-16	4	Red	d	1	1.1554	D	R	NDZQ	AROW	br	rb	2	2000	1	6	0	99	996	21-Apr-16	5	Red	g	1	1.1813	E	G	EKFO	GXJP	b	r	1	2000	1	6	0	99	996	21-Apr-16	6	Red	b	1	1.122	B	T	RVBP	ESTL	rbr	brb	3	650	1	6	0	99	996	21-Apr-16	7	Red	b	1	0.9665	B	L	OBWC	SLZH	rr	bb	2	2000	1	6	0	99	996	21-Apr-16	8	Red	m	1	1.4082	M	L	MUAX	LIKZ	r	b	1	650	1	6	0	99	996	21-Apr-16	9	Red	y	1	0.7863	Y	O	WDYF	HSOM	rrr	bbb	3	650	1	6	0	99	996	21-Apr-16	10	Red	g	1	1.2636	X	G	AVIX	YMUG	rrrb	bbbr	4	2000	1	6	0	99	996	21-Apr-16	11	Red	b	1	1.3595	B	T	CBSZ	ETGJ	rr	bb	2	2000	1	6	0	99	996	21-Apr-16	12	Red	d	0	1.9406	E	N	DEOB	KNPV	rb	br	2	650	1	6	0	99	996	21-Apr-16	13	Red	s	1	1.4835	Q	S	QDHT	SLWG	b	r	1	650	1	6	0	99	996	21-Apr-16	14	Red	o	1	1.0741	O	P	OUNH	PYSW	r	b	1	2000	1	6	0	99	996	21-Apr-16	15	Red	n	1	1.1845	G	N	GLJI	NHCE	b	r	1	650	1	6	0	99	996	21-Apr-16	16	Red	f	1	0.9612	L	F	OLJK	PFXG	rb	br	2	650	1	6	0	99	996	21-Apr-16	17	Red	d	1	1.4158	Y	D	HPYR	VXDB	brb	rbr	3	2000	1	6	0	99	996	21-Apr-16	18	Red	d	1	1.2843	Y	D	TRKY	IHSD	bbbb	rrrr	4	650	1	6	0	99	996	21-Apr-16	19	Red	h	1	2.7305	R	H	RETX	HBGM	b	r	1	650	1	6	0	99	996	21-Apr-16	20	Red	i	1	1.0826	I	M	VNGI	LJZM	brbr	rbrb	4	2000	1	6	0	99	996	21-Apr-16	21	Red	z	1	1.8928	Z	C	HGTZ	LRYC	bbrr	rrbb	4	2000	1	6	0	99	996	21-Apr-16	22	Red	k	1	1.0249	K	F	CSKG	WEFY	bbr	rrb	3	2000	1	6	0	99	996	21-Apr-16	23	Red	j	1	1.0987	H	J	EAHD	RNJM	rbb	brr	3	650	1	6	0	99	996	21-Apr-16	24	Red	w	0	1.3744	U	I	BUNW	YIKH	br	rb	2	650	1	6	0	99	996	21-Apr-16	25	Red	f	0	0.7664	F	Z	WAOF	SXBZ	bbbb	rrrr	4	2000	1	6	0	99	996	21-Apr-16	26	Red	d	0	0.9707	O	I	ZYOH	CDIG	bbr	rrb	3	2000	1	6	0	99	996	21-Apr-16	27	Red	j	1	1.0774	J	P	BIJW	GRPV	brr	rbb	3	650	1	6	0	99	996	21-Apr-16	28	Red	g	1	1.3474	Q	G	BQOW	AGXH	bb	rr	2	650	1	6	0	99	996	21-Apr-16	29	Red	r	0	1.1868	L	Q	HXGL	RDWQ	bbbb	rrrr	4	650	1	6	0	99	996	21-Apr-16	30	Red	v	1	1.2044	V	N	VYAI	NJOZ	r	b	1	2000	1	6	0	99	996	21-Apr-16	31	Red	l	1	1.0643	Q	L	DOQJ	IGLR	brb	rbr	3	2000	1	6	0	99	996	21-Apr-16	32	Red	k	1	1.1305	W	K	ZGAW	XHMK	rrbb	bbrr	4	650	1	6	0	99	996	21-Apr-16	1	Blue	t	1	0.8396	99	99	NBST	MIED	9999	9999	4	650	1	3	1	NBST	T6	21-Apr-16	2	Blue	y	1	1.2784	99	99	EGYI	BVMA	999	999	3	650	1	3	1	EGYI	Y6	21-Apr-16	3	Blue	l	1	1.4782	99	99	OLHM	KXUT	99	99	2	650	1	3	1	OLHM	L6	21-Apr-16	4	Blue	h	1	1.1311	99	99	IAUH	YJMO	9999	9999	4	2000	1	3	1	IAUH	H6	21-Apr-16	5	Blue	n	0	1.0346	99	99	NLYD	CPAS	999	999	3	2000	1	3	1	NLYD	Y6	21-Apr-16	6	Blue	m	0	1.7948	99	99	OAJZ	IHMV	999	999	3	650	1	3	1	OAJZ	J6	21-Apr-16	7	Blue	o	0	1.1065	99	99	KRSL	YIOZ	99	99	2	2000	1	3	1	KRSL	R6	21-Apr-16	8	Blue	w	0	1.9732	99	99	HGBY	WTCU	9	9	1	650	1	3	1	HGBY	H6	21-Apr-16	9	Blue	r	0	1.1023	99	99	RKHG	LSIM	999	999	3	650	1	3	1	RKHG	H6	21-Apr-16	10	Blue	s	1	0.8958	99	99	BCFS	VGAX	9999	9999	4	2000	1	3	1	BCFS	S6	21-Apr-16	11	Blue	n	0	1.2561	99	99	WXNI	ARHB	9999	9999	4	2000	1	3	1	WXNI	I6	21-Apr-16	12	Blue	z	1	1.7758	99	99	ZELW	NUKQ	9	9	1	2000	1	3	1	ZELW	Z6	21-Apr-16	13	Blue	y	0	1.7813	99	99	YVOJ	BTWK	99	99	2	650	1	3	1	YVOJ	V6	21-Apr-16	14	Blue	q	0	1.3555	99	99	KWVC	HMBQ	99	99	2	650	1	3	1	KWVC	W6	21-Apr-16	15	Blue	s	1	1.1206	99	99	LSWF	GYCN	99	99	2	650	1	3	1	LSWF	S6	21-Apr-16	16	Blue	v	1	1.0154	99	99	MVLP	QAZC	99	99	2	2000	1	3	1	MVLP	V6	21-Apr-16	17	Blue	t	0	1.8076	99	99	TEIR	PJAL	99	99	2	2000	1	3	1	TEIR	E6	21-Apr-16	18	Blue	r	0	0.9994	99	99	MSTE	CWRL	999	999	3	2000	1	3	1	MSTE	T6	21-Apr-16	19	Blue	o	1	1.1276	99	99	OFVG	DQUP	9	9	1	2000	1	3	1	OFVG	O6	21-Apr-16	20	Blue	g	1	1.3486	99	99	GKRF	AHZB	9	9	1	2000	1	3	1	GKRF	G6	21-Apr-16	21	Blue	b	0	1.4639	99	99	DWSG	ERPB	9	9	1	650	1	3	1	DWSG	D6	21-Apr-16	22	Blue	q	0	0.9487	99	99	KAUZ	BSDF	9999	9999	4	2000	1	3	1	KAUZ	Z6	21-Apr-16	23	Blue	v	0	1.6249	99	99	VIXA	PJZG	9999	9999	4	650	1	3	1	VIXA	A6	21-Apr-16	24	Blue	f	1	0.8644	99	99	CKFB	VGUR	999	999	3	2000	1	3	1	CKFB	F6	21-Apr-16	25	Blue	m	0	1.2629	99	99	MOIR	FWVZ	999	999	3	650	1	3	1	MOIR	I6	21-Apr-16	26	Blue	k	0	1.7225	99	99	NUDS	CBJI	9999	9999	4	650	1	3	1	NUDS	S6	21-Apr-16	27	Blue	j	0	1.0676	99	99	JLXY	FDPC	999	999	3	2000	1	3	1	JLXY	X6	21-Apr-16	28	Blue	d	1	1.7694	99	99	DFUV	TNJA	9	9	1	2000	1	3	1	DFUV	D6	21-Apr-16	29	Blue	d	0	3.9748	99	99	PRSC	QTJB	9	9	1	650	1	3	1	PRSC	P6	21-Apr-16	30	Blue	a	0	0.8398	99	99	QGDL	NACZ	99	99	2	2000	1	3	1	QGDL	G6	21-Apr-16	31	Blue	o	1	1.8374	99	99	OPIR	VKBX	9	9	1	650	1	3	1	OPIR	O6	21-Apr-16	32	Blue	k	0	1.9069	99	99	AQFL	UJTX	9999	9999	4	650	1	3	1	AQFL	L6	21-Apr-16	1	Red	n	1	0.8901	99	99	NKIR	LTDJ	9	9	1	2000	1	3	1	NKIR	N6	21-Apr-16	2	Red	u	1	1.0892	99	99	ZUJV	ERSL	99	99	2	2000	1	3	1	ZUJV	U6	21-Apr-16	3	Red	o	1	1.6633	99	99	OQVA	FYWG	9	9	1	2000	1	3	1	OQVA	O6	21-Apr-16	4	Red	c	1	2.1915	99	99	CBRQ	UALM	9	9	1	650	1	3	1	CBRQ	C6	21-Apr-16	5	Red	q	0	0.5134	99	99	ISQJ	ODFT	9999	9999	4	2000	1	3	1	ISQJ	J6	21-Apr-16	6	Red	w	0	1.3656	99	99	MTBI	WHDK	9999	9999	4	650	1	3	1	MTBI	I6	21-Apr-16	7	Red	c	0	1.2996	99	99	XHCO	JBVZ	9999	9999	4	650	1	3	1	XHCO	O6	21-Apr-16	8	Red	z	1	1.2662	99	99	ZOKE	TCDP	9	9	1	650	1	3	1	ZOKE	Z6	21-Apr-16	9	Red	o	1	1.4908	99	99	DOPL	QTHW	99	99	2	2000	1	3	1	DOPL	O6	21-Apr-16	10	Red	m	1	1.117	99	99	SRMA	CTJQ	999	999	3	2000	1	3	1	SRMA	M6	21-Apr-16	11	Red	p	0	1.3744	99	99	PYLJ	UKHF	9999	9999	4	2000	1	3	1	PYLJ	J6	21-Apr-16	12	Red	h	1	1.3257	99	99	CTHP	EDIJ	999	999	3	2000	1	3	1	CTHP	H6	21-Apr-16	13	Red	v	0	1.4783	99	99	VAOU	QJMT	9999	9999	4	650	1	3	1	VAOU	U6	21-Apr-16	14	Red	a	0	1.4251	99	99	YAXT	EVOL	999	999	3	2000	1	3	1	YAXT	X6	21-Apr-16	15	Red	d	0	1.2933	99	99	DZXC	NYSB	999	999	3	650	1	3	1	DZXC	X6	21-Apr-16	16	Red	w	0	1.5564	99	99	WUZI	HXQD	999	999	3	650	1	3	1	WUZI	Z6	21-Apr-16	17	Red	l	0	1.5617	99	99	LNPO	RGBS	99	99	2	650	1	3	1	LNPO	N6	21-Apr-16	18	Red	e	1	0.9998	99	99	EDRQ	IAMO	9	9	1	650	1	3	1	EDRQ	E6	21-Apr-16	19	Red	w	1	0.9994	99	99	NWOS	JPTL	99	99	2	650	1	3	1	NWOS	W6	21-Apr-16	20	Red	e	0	0.4417	99	99	EGXT	JYIK	99	99	2	2000	1	3	1	EGXT	G6	21-Apr-16	21	Red	g	0	1.3114	99	99	NBXO	JGLU	99	99	2	650	1	3	1	NBXO	B6	21-Apr-16	22	Red	r	0	1.2891	99	99	RQIY	VPCS	9999	9999	4	2000	1	3	1	RQIY	Y6	21-Apr-16	23	Red	r	0	2.7137	99	99	NRWP	SFXA	999	999	3	650	1	3	1	NRWP	W6	21-Apr-16	24	Red	c	0	0.8142	99	99	NDEZ	LJXB	99	99	2	2000	1	3	1	NDEZ	D6	21-Apr-16	25	Red	y	1	1.0811	99	99	QOJY	BAEZ	9999	9999	4	650	1	3	1	QOJY	Y6	21-Apr-16	26	Red	g	1	1.7788	99	99	FQDG	CVZK	9999	9999	4	2000	1	3	1	FQDG	G6	21-Apr-16	27	Red	d	1	1.5691	99	99	DGEK	RVXP	9	9	1	650	1	3	1	DGEK	D6	21-Apr-16	28	Red	h	0	0.7821	99	99	HEBX	TKZS	999	999	3	650	1	3	1	HEBX	B6	21-Apr-16	29	Red	y	1	1.2458	99	99	YLTK	ZXVW	9	9	1	2000	1	3	1	YLTK	Y6	21-Apr-16	30	Red	d	1	1.3385	99	99	YIDQ	ORWF	999	999	3	2000	1	3	1	YIDQ	D6	21-Apr-16	31	Red	t	1	1.271	99	99	TFHP	KRZS	9	9	1	2000	1	3	1	TFHP	T6	21-Apr-16	32	Red	y	0	1.1168	99	99	YGRE	ALHT	99	99	2	650	1	3	1	YGRE	G6	21-Apr-16	1	Blue	f	1	1.194	99	99	VMFL	IGCR	999	999	3	650	1	3	1	VMFL	F6	21-Apr-16	2	Blue	i	1	2.2267	99	99	IMOJ	SPUR	9	9	1	650	1	3	1	IMOJ	I6	21-Apr-16	3	Blue	h	1	1.1717	99	99	IBHS	UXZQ	999	999	3	2000	1	3	1	IBHS	H6	21-Apr-16	4	Blue	m	1	0.9463	99	99	QPMN	UIKF	999	999	3	2000	1	3	1	QPMN	M6	21-Apr-16	5	Blue	k	0	1.105	99	99	XCHS	ZRPQ	9999	9999	4	2000	1	3	1	XCHS	S6	21-Apr-16	6	Blue	a	1	5.9735	99	99	AHQK	RGIL	9	9	1	650	1	3	1	AHQK	A6	21-Apr-16	7	Blue	y	1	1.273	99	99	BYTH	UPIQ	99	99	2	2000	1	3	1	BYTH	Y6	21-Apr-16	8	Blue	w	0	1.3678	99	99	WEFH	UIJC	99	99	2	650	1	3	1	WEFH	E6	21-Apr-16	9	Blue	g	0	1.3502	99	99	GQIH	TXKN	99	99	2	2000	1	3	1	GQIH	Q6	21-Apr-16	10	Blue	p	0	1.5405	99	99	PYZT	WSDH	99	99	2	650	1	3	1	PYZT	Y6	21-Apr-16	11	Blue	v	0	1.65	99	99	FWHX	CELV	99	99	2	650	1	3	1	FWHX	W6	21-Apr-16	12	Blue	u	1	1.325	99	99	IUKF	ZDTV	99	99	2	2000	1	3	1	IUKF	U6	21-Apr-16	13	Blue	v	1	1.7691	99	99	VSGL	PECH	9	9	1	2000	1	3	1	VSGL	V6	21-Apr-16	14	Blue	w	1	2.0157	99	99	WQEH	GLJT	9	9	1	650	1	3	1	WQEH	W6	21-Apr-16	15	Blue	g	0	0.5522	99	99	SFWR	CBGI	9999	9999	4	2000	1	3	1	SFWR	R6	21-Apr-16	16	Blue	a	0	1.8739	99	99	JOZT	AEKY	999	999	3	650	1	3	1	JOZT	Z6	21-Apr-16	17	Blue	v	0	1.5587	99	99	YAVT	MPQX	9999	9999	4	650	1	3	1	YAVT	T6	21-Apr-16	18	Blue	x	1	1.6105	99	99	XBJL	ZYON	9	9	1	2000	1	3	1	XBJL	X6	21-Apr-16	19	Blue	l	0	1.0964	99	99	MLVF	YZOR	9999	9999	4	650	1	3	1	MLVF	F6	21-Apr-16	20	Blue	v	1	1.1112	99	99	VNGU	JKSH	9	9	1	2000	1	3	1	VNGU	V6	21-Apr-16	21	Blue	t	1	1.8979	99	99	TCFM	DPRB	9	9	1	650	1	3	1	TCFM	T6	21-Apr-16	22	Blue	z	0	2.3168	99	99	OZTP	QHMD	999	999	3	650	1	3	1	OZTP	T6	21-Apr-16	23	Blue	v	1	1.9214	99	99	EVHR	CXAG	99	99	2	2000	1	3	1	EVHR	V6	21-Apr-16	24	Blue	g	0	1.2333	99	99	DWBY	VHGC	99	99	2	650	1	3	1	DWBY	W6	21-Apr-16	25	Blue	o	0	0.9582	99	99	OAPV	UGWC	999	999	3	2000	1	3	1	OAPV	P6	21-Apr-16	26	Blue	p	0	0.9878	99	99	OXDP	NKEF	999	999	3	2000	1	3	1	OXDP	D6	21-Apr-16	27	Blue	h	0	1.0487	99	99	EQHZ	PDLY	9999	9999	4	2000	1	3	1	EQHZ	Z6	21-Apr-16	28	Blue	m	0	1.9461	99	99	MCUW	ZAVO	9999	9999	4	650	1	3	1	MCUW	W6	21-Apr-16	29	Blue	j	1	1.2028	99	99	JPOW	AHXC	9	9	1	2000	1	3	1	JPOW	J6	21-Apr-16	30	Blue	p	0	1.3505	99	99	IPXL	VJHR	999	999	3	650	1	3	1	IPXL	X6	21-Apr-16	31	Blue	z	0	1.469	99	99	FZJQ	HVMD	9999	9999	4	650	1	3	1	FZJQ	Q6	21-Apr-16	32	Blue	x	0	1.25	99	99	PXAQ	ZKSB	9999	9999	4	2000	1	3	1	PXAQ	Q6	21-Apr-16	1	Red	d	0	1.5786	99	99	TFNM	ERQD	99	99	2	650	1	3	1	TFNM	F6	21-Apr-16	2	Red	y	1	2.0386	99	99	YECN	LUTA	9	9	1	650	1	3	1	YECN	Y6	21-Apr-16	3	Red	i	1	3.3465	99	99	IAJH	OPBZ	9	9	1	2000	1	3	1	IAJH	I6	21-Apr-16	4	Red	k	1	2.7243	99	99	TVAK	XZDG	9999	9999	4	650	1	3	1	TVAK	K6	21-Apr-16	5	Red	r	1	5.671	99	99	REJX	BYAH	9	9	1	650	1	3	1	REJX	R6	21-Apr-16	6	Red	q	0	2.0879	99	99	RNXT	PDVB	999	999	3	650	1	3	1	RNXT	X6	21-Apr-16	7	Red	b	0	1.4279	99	99	GQKM	BSCJ	9999	9999	4	650	1	3	1	GQKM	M6	21-Apr-16	8	Red	b	1	1.2929	99	99	BDYX	QZTL	9	9	1	650	1	3	1	BDYX	B6	21-Apr-16	9	Red	q	1	1.3466	99	99	QAZM	SXTL	9	9	1	2000	1	3	1	QAZM	Q6	21-Apr-16	10	Red	m	1	1.2397	99	99	MYEW	RKDN	9	9	1	2000	1	3	1	MYEW	M6	21-Apr-16	11	Red	f	0	1.6499	99	99	FCNM	ZIJH	999	999	3	650	1	3	1	FCNM	N6	21-Apr-16	12	Red	j	1	0.9909	99	99	SLXJ	QEHN	9999	9999	4	650	1	3	1	SLXJ	J6	21-Apr-16	13	Red	z	1	3.6863	99	99	ZCWU	KEDT	9	9	1	650	1	3	1	ZCWU	Z6	21-Apr-16	14	Red	p	0	1.6581	99	99	PAUG	BOEQ	99	99	2	650	1	3	1	PAUG	A6	21-Apr-16	15	Red	e	0	1.6277	99	99	ECLY	RMIK	99	99	2	2000	1	3	1	ECLY	C6	21-Apr-16	16	Red	r	0	0.6993	99	99	RONP	HLKI	999	999	3	2000	1	3	1	RONP	N6	21-Apr-16	17	Red	w	0	1.4223	99	99	WCRE	LMKU	99	99	2	650	1	3	1	WCRE	C6	21-Apr-16	18	Red	d	1	1.1691	99	99	WDEK	ITAR	99	99	2	2000	1	3	1	WDEK	D6	21-Apr-16	19	Red	s	1	1.1566	99	99	SRUP	JQBX	9	9	1	2000	1	3	1	SRUP	S6	21-Apr-16	20	Red	n	0	1.3552	99	99	NXVZ	WISU	999	999	3	2000	1	3	1	NXVZ	V6	21-Apr-16	21	Red	e	0	1.3603	99	99	EFOW	QCHA	999	999	3	650	1	3	1	EFOW	O6	21-Apr-16	22	Red	e	1	1.1672	99	99	GVEL	YHKW	999	999	3	650	1	3	1	GVEL	E6	21-Apr-16	23	Red	q	0	1.29	99	99	ZWKH	CSQV	99	99	2	2000	1	3	1	ZWKH	W6	21-Apr-16	24	Red	z	0	0.8445	99	99	ZCIV	NRLH	999	999	3	2000	1	3	1	ZCIV	I6	21-Apr-16	25	Red	l	0	0.9244	99	99	LYFT	AQWM	9999	9999	4	650	1	3	1	LYFT	T6	21-Apr-16	26	Red	y	0	1.3299	99	99	YBHZ	JEFQ	99	99	2	2000	1	3	1	YBHZ	B6	21-Apr-16	27	Red	s	0	1.327	99	99	IHOB	FJXA	99	99	2	650	1	3	1	IHOB	H6	21-Apr-16	28	Red	x	0	1.2732	99	99	OHCQ	PFXR	9999	9999	4	2000	1	3	1	OHCQ	Q6	21-Apr-16	29	Red	g	1	0.9485	99	99	KMIG	FQZD	9999	9999	4	2000	1	3	1	KMIG	G6	21-Apr-16	30	Red	y	0	1.3776	99	99	YTUO	IGVR	999	999	3	2000	1	3	1	YTUO	U6	21-Apr-16	31	Red	w	1	1.1625	99	99	CTPW	NLAX	9999	9999	4	2000	1	3	1	CTPW	W6	21-Apr-16	32	Red	g	0	1.2984	99	99	TVGF	JSBI	9999	9999	4	2000	1	3	1	TVGF	F8	26-Apr-16	1	Blue	c	0	2.3262	F	K	RDFI	ZCKL	rrb	bbr	3	650	1	6	0	99	998	26-Apr-16	2	Blue	f	1	1.1562	X	F	ECXZ	AGFH	rrr	bbb	3	2000	1	6	0	99	998	26-Apr-16	3	Blue	i	1	1.1948	I	O	LBQI	SDVO	bbbb	rrrr	4	650	1	6	0	99	998	26-Apr-16	4	Blue	w	1	1.148	A	W	ABPT	WRHQ	r	b	1	2000	1	6	0	99	998	26-Apr-16	5	Blue	j	0	1.7281	O	K	JOMC	SKIR	bb	rr	2	650	1	6	0	99	998	26-Apr-16	6	Blue	n	1	1.2454	N	V	NSJB	VIKP	b	r	1	650	1	6	0	99	998	26-Apr-16	7	Blue	h	1	1.1602	B	H	JRUB	IKCH	rrbr	bbrb	4	650	1	6	0	99	998	26-Apr-16	8	Blue	d	1	1.4255	M	D	MXTW	DLQN	r	b	1	650	1	6	0	99	998	26-Apr-16	9	Blue	i	1	1.1887	I	B	ZISM	UBJK	bb	rr	2	650	1	6	0	99	998	26-Apr-16	10	Blue	x	0	2.8221	G	B	RGLU	XBAK	rr	bb	2	650	1	6	0	99	998	26-Apr-16	11	Blue	r	0	2.2248	W	Z	NRWC	SKZD	rbr	brb	3	650	1	6	0	99	998	26-Apr-16	12	Blue	a	1	1.0745	A	U	DPBA	EGCU	bbrb	rrbr	4	2000	1	6	0	99	998	26-Apr-16	13	Blue	q	1	1.48	Q	D	QRIO	DHTN	b	r	1	650	1	6	0	99	998	26-Apr-16	14	Blue	r	1	1.1227	J	R	EBJK	YHRZ	brr	rbb	3	2000	1	6	0	99	998	26-Apr-16	15	Blue	w	1	1.2886	T	W	VTKL	SWFX	br	rb	2	2000	1	6	0	99	998	26-Apr-16	16	Blue	l	1	1.0654	O	L	UWON	DQLM	bbr	rrb	3	2000	1	6	0	99	998	26-Apr-16	17	Blue	d	1	1.1672	N	D	TNQR	ZDOA	rr	bb	2	2000	1	6	0	99	998	26-Apr-16	18	Blue	a	1	1.064	A	T	WNRA	OGQT	bbbb	rrrr	4	2000	1	6	0	99	998	26-Apr-16	19	Blue	a	1	1.4898	G	A	JKDG	YRFA	bbbr	rrrb	4	650	1	6	0	99	998	26-Apr-16	20	Blue	r	1	2.2261	R	U	IRSH	XUJG	bb	rr	2	2000	1	6	0	99	998	26-Apr-16	21	Blue	b	0	5.1803	U	B	PWHU	RDXB	rbbb	brrr	4	2000	1	6	0	99	998	26-Apr-16	22	Blue	h	1	2.33	H	V	HXBQ	VRKY	b	r	1	650	1	6	0	99	998	26-Apr-16	23	Blue	m	0	1.157	D	W	XPDT	HVWZ	brb	rbr	3	650	1	6	0	99	998	26-Apr-16	24	Blue	a	1	1.0406	A	C	DHAL	JPCZ	rrb	bbr	3	650	1	6	0	99	998	26-Apr-16	25	Blue	k	1	0.9465	R	K	IDRF	AGKC	brr	rbb	3	2000	1	6	0	99	998	26-Apr-16	26	Blue	z	1	1.1969	O	Z	OWPV	ZNGY	r	b	1	2000	1	6	0	99	998	26-Apr-16	27	Blue	e	1	1.0998	T	E	BLST	HAIE	brrr	rbbb	4	2000	1	6	0	99	998	26-Apr-16	28	Blue	g	1	2.7375	N	G	KNWQ	PGOI	rr	bb	2	2000	1	6	0	99	998	26-Apr-16	29	Blue	b	0	3.3119	H	N	XCEH	GUBN	rrbr	bbrb	4	650	1	6	0	99	998	26-Apr-16	30	Blue	s	0	1.5276	B	P	SBXZ	MPRO	bb	rr	2	650	1	6	0	99	998	26-Apr-16	31	Blue	z	1	1.3102	C	Z	CAUQ	ZFHD	r	b	1	2000	1	6	0	99	998	26-Apr-16	32	Blue	a	1	1.6267	O	A	ONMD	AIQU	r	b	1	2000	1	6	0	99	998	26-Apr-16	1	Red	e	1	1.531	E	C	OEMH	BCGR	rr	bb	2	650	1	6	0	99	998	26-Apr-16	2	Red	f	1	1.3979	U	F	SJXU	EBTF	bbbb	rrrr	4	2000	1	6	0	99	998	26-Apr-16	3	Red	a	1	1.5616	A	B	IFAM	EPBH	rrr	bbb	3	650	1	6	0	99	998	26-Apr-16	4	Red	w	0	1.8223	G	V	EGJD	WVCZ	br	rb	2	650	1	6	0	99	998	26-Apr-16	5	Red	b	0	1.0776	C	M	HYAC	IJBM	rrbb	bbrr	4	650	1	6	0	99	998	26-Apr-16	6	Red	x	1	0.8746	F	X	FIBJ	XHSP	b	r	1	2000	1	6	0	99	998	26-Apr-16	7	Red	w	1	0.9702	K	W	DVKH	ZQWN	brb	rbr	3	2000	1	6	0	99	998	26-Apr-16	8	Red	b	1	1.293	B	E	PBHC	ZENY	br	rb	2	2000	1	6	0	99	998	26-Apr-16	9	Red	k	1	1.8993	K	O	KTUL	OYMN	r	b	1	650	1	6	0	99	998	26-Apr-16	10	Red	b	1	0.809	B	X	CLGB	TQOX	rbrr	brbb	4	2000	1	6	0	99	998	26-Apr-16	11	Red	y	1	1.4176	Y	Z	XCYE	INZS	brr	rbb	3	2000	1	6	0	99	998	26-Apr-16	12	Red	c	1	0.3929	D	C	KLND	QPAC	rbrb	brbr	4	2000	1	6	0	99	998	26-Apr-16	13	Red	b	0	1.0221	O	F	COIU	AFZY	rb	br	2	650	1	6	0	99	998	26-Apr-16	14	Red	o	1	0.7456	O	V	SWOI	QUVM	brr	rbb	3	2000	1	6	0	99	998	26-Apr-16	15	Red	q	1	1.7221	Q	C	QTGL	CIWE	r	b	1	2000	1	6	0	99	998	26-Apr-16	16	Red	f	1	1.2573	R	F	ROMH	FSLZ	b	r	1	2000	1	6	0	99	998	26-Apr-16	17	Red	c	1	1.17	G	C	XWMG	RBIC	rbrb	brbr	4	650	1	6	0	99	998	26-Apr-16	18	Red	e	1	1.8918	P	E	PIHA	EQWF	b	r	1	650	1	6	0	99	998	26-Apr-16	19	Red	j	1	1.0778	A	J	WAGL	RJSP	rb	br	2	2000	1	6	0	99	998	26-Apr-16	20	Red	i	1	1.1335	I	T	SWIY	ZMTA	rbr	brb	3	650	1	6	0	99	998	26-Apr-16	21	Red	t	1	1.1153	T	Y	VTFM	BYJK	br	rb	2	2000	1	6	0	99	998	26-Apr-16	22	Red	l	1	1.6253	S	L	OFSQ	AZLR	rrb	bbr	3	650	1	6	0	99	998	26-Apr-16	23	Red	e	1	1.4191	E	Y	EPCW	YHKD	r	b	1	2000	1	6	0	99	998	26-Apr-16	24	Red	f	1	1.2076	F	V	NKGF	YPSV	bbbr	rrrb	4	650	1	6	0	99	998	26-Apr-16	25	Red	w	1	1.3284	C	W	CUXG	WYZK	b	r	1	650	1	6	0	99	998	26-Apr-16	26	Red	x	1	1.0232	A	X	UGAV	SKXF	bbb	rrr	3	2000	1	6	0	99	998	26-Apr-16	27	Red	v	1	1.2905	Y	V	AJRY	GSHV	rrrb	bbbr	4	650	1	6	0	99	998	26-Apr-16	28	Red	v	1	1.6346	A	V	QADK	PVMZ	rb	br	2	2000	1	6	0	99	998	26-Apr-16	29	Red	s	1	0.9168	R	S	YIRO	LUSZ	rbb	brr	3	650	1	6	0	99	998	26-Apr-16	30	Red	o	1	1.2568	D	O	DGQT	OJWM	b	r	1	650	1	6	0	99	998	26-Apr-16	31	Red	v	1	3.84	V	Z	YVKH	PZOM	br	rb	2	650	1	6	0	99	998	26-Apr-16	32	Red	o	1	1.5366	D	O	LVQD	XUAO	rbbb	brrr	4	2000	1	6	0	99	998	26-Apr-16	1	Blue	o	0	1.4965	H	U	DHQC	BUWN	rb	br	2	650	1	6	0	99	998	26-Apr-16	2	Blue	i	1	1.0247	I	J	VNIX	RCJW	rrb	bbr	3	650	1	6	0	99	998	26-Apr-16	3	Blue	h	1	1.6575	H	K	HDVZ	KQCI	b	r	1	2000	1	6	0	99	998	26-Apr-16	4	Blue	h	1	1.3303	Y	H	SYUE	KHBA	br	rb	2	650	1	6	0	99	998	26-Apr-16	5	Blue	w	0	1.6112	B	A	ZPYB	QTOA	bbbr	rrrb	4	650	1	6	0	99	998	26-Apr-16	6	Blue	b	0	3.1985	O	F	ZBOA	XUFV	bbr	rrb	3	650	1	6	0	99	998	26-Apr-16	7	Blue	f	1	1.3711	F	T	FOMU	TXWY	b	r	1	2000	1	6	0	99	998	26-Apr-16	8	Blue	a	0	1.5827	O	M	EAOY	WGMC	bbr	rrb	3	650	1	6	0	99	998	26-Apr-16	9	Blue	s	1	1.0669	S	I	STHP	IKER	b	r	1	650	1	6	0	99	998	26-Apr-16	10	Blue	n	1	0.8742	P	N	BPFG	ENDH	rr	bb	2	2000	1	6	0	99	998	26-Apr-16	11	Blue	z	1	3.515	Z	L	TROZ	VJIL	bbrb	rrbr	4	2000	1	6	0	99	998	26-Apr-16	12	Blue	b	1	1.3084	B	O	QBES	AOUY	rb	br	2	2000	1	6	0	99	998	26-Apr-16	13	Blue	s	1	0.9025	S	M	IZKS	CUJM	brbb	rbrr	4	650	1	6	0	99	998	26-Apr-16	14	Blue	p	1	1.3784	Z	P	NZEM	BPRU	rr	bb	2	2000	1	6	0	99	998	26-Apr-16	15	Blue	c	1	0.8112	C	T	QFZC	PJUT	bbbb	rrrr	4	2000	1	6	0	99	998	26-Apr-16	16	Blue	i	1	1.4098	Y	I	YJGA	IOFT	r	b	1	2000	1	6	0	99	998	26-Apr-16	17	Blue	x	0	1.542	U	W	QCUR	AKWP	bbr	rrb	3	2000	1	6	0	99	998	26-Apr-16	18	Blue	e	1	1.2303	B	E	WQBI	DGEO	rrr	bbb	3	2000	1	6	0	99	998	26-Apr-16	19	Blue	s	1	1.1102	D	S	DCVQ	SFKR	r	b	1	2000	1	6	0	99	998	26-Apr-16	20	Blue	l	1	2.2346	T	L	TWYX	LOSC	r	b	1	650	1	6	0	99	998	26-Apr-16	21	Blue	w	0	1.3977	G	J	HCSG	RDYJ	brrb	rbbr	4	2000	1	6	0	99	998	26-Apr-16	22	Blue	c	1	1.0721	M	C	IMYO	GCVH	rr	bb	2	650	1	6	0	99	998	26-Apr-16	23	Blue	q	1	0.8317	Q	D	HJQM	FVDP	rbb	brr	3	2000	1	6	0	99	998	26-Apr-16	24	Blue	l	1	1.49	T	L	YPTI	GRLD	rbr	brb	3	2000	1	6	0	99	998	26-Apr-16	25	Blue	v	1	1.0205	X	V	PCSX	ALZV	bbrr	rrbb	4	650	1	6	0	99	998	26-Apr-16	26	Blue	w	0	1.4594	N	X	PNAM	JXWU	rb	br	2	650	1	6	0	99	998	26-Apr-16	27	Blue	q	1	1.0535	P	Q	CDPR	NVQZ	rrr	bbb	3	650	1	6	0	99	998	26-Apr-16	28	Blue	l	1	1.6917	P	L	PSOR	LEZY	r	b	1	650	1	6	0	99	998	26-Apr-16	29	Blue	e	0	2.6943	W	V	RHEW	ODBV	brbr	rbrb	4	650	1	6	0	99	998	26-Apr-16	30	Blue	n	1	0.9288	E	N	LHCE	ZFKN	rbbr	brrb	4	2000	1	6	0	99	998	26-Apr-16	31	Blue	e	1	1.4215	M	E	HMZP	KETF	br	rb	2	2000	1	6	0	99	998	26-Apr-16	32	Blue	w	1	1.7497	E	W	EGUI	WAKQ	r	b	1	650	1	6	0	99	998	26-Apr-16	1	Red	b	1	1.5373	W	B	WUPM	BSXG	b	r	1	650	1	6	0	99	998	26-Apr-16	2	Red	s	1	0.6546	S	Y	SIWC	YNZV	r	b	1	2000	1	6	0	99	998	26-Apr-16	3	Red	v	1	0.9484	X	V	ULXB	TZVI	brb	rbr	3	650	1	6	0	99	998	26-Apr-16	4	Red	m	1	0.9286	A	M	EAZY	TMHI	rb	br	2	2000	1	6	0	99	998	26-Apr-16	5	Red	h	0	6.917	N	H	ANIQ	MHVS	br	rb	2	2000	1	6	0	99	998	26-Apr-16	6	Red	a	1	1.1054	A	D	HGAV	MODS	brr	rbb	3	2000	1	6	0	99	998	26-Apr-16	7	Red	s	1	2.0533	R	S	RFEH	SXBK	b	r	1	650	1	6	0	99	998	26-Apr-16	8	Red	x	1	0.7763	Y	X	YMRQ	XINV	b	r	1	2000	1	6	0	99	998	26-Apr-16	9	Red	s	0	1.3361	H	Q	SHFV	AQXM	bb	rr	2	650	1	6	0	99	998	26-Apr-16	10	Red	y	1	3.2358	F	Y	FTCU	YSIB	b	r	1	650	1	6	0	99	998	26-Apr-16	11	Red	n	1	0.8587	S	N	IYHS	FATN	bbbb	rrrr	4	2000	1	6	0	99	998	26-Apr-16	12	Red	q	1	1.0489	B	Q	HBAC	MQGX	rb	br	2	650	1	6	0	99	998	26-Apr-16	13	Red	e	0	3.5539	L	W	PZSL	YKEW	brbr	rbrb	4	650	1	6	0	99	998	26-Apr-16	14	Red	j	1	1.0035	U	J	HXUS	CKJM	brb	rbr	3	650	1	6	0	99	998	26-Apr-16	15	Red	p	1	1.931	V	P	VXNK	PLSB	b	r	1	650	1	6	0	99	998	26-Apr-16	16	Red	o	1	1.4861	H	O	RAHM	JCOL	rrb	bbr	3	2000	1	6	0	99	998	26-Apr-16	17	Red	p	1	1.6665	P	L	EJMP	BIVL	bbrr	rrbb	4	2000	1	6	0	99	998	26-Apr-16	18	Red	e	1	1.2286	E	A	PFEY	QIAC	rrr	bbb	3	650	1	6	0	99	998	26-Apr-16	19	Red	z	1	0.6428	Z	K	XQEZ	FTCK	brrr	rbbb	4	2000	1	6	0	99	998	26-Apr-16	20	Red	h	1	2.1788	V	H	ANSV	KOUH	brbb	rbrr	4	650	1	6	0	99	998	26-Apr-16	21	Red	r	1	1.3009	R	T	AYVR	HEWT	rrrr	bbbb	4	650	1	6	0	99	998	26-Apr-16	22	Red	i	1	1.4194	H	I	LHNK	SICG	bb	rr	2	650	1	6	0	99	998	26-Apr-16	23	Red	q	0	2.8256	D	R	YZQD	VKOR	rbrr	brbb	4	2000	1	6	0	99	998	26-Apr-16	24	Red	r	1	1.3218	O	R	KOYC	XRUQ	rb	br	2	650	1	6	0	99	998	26-Apr-16	25	Red	c	1	0.7779	N	C	FERN	JYZC	rbbb	brrr	4	650	1	6	0	99	998	26-Apr-16	26	Red	y	1	1.1293	Y	D	YGWC	DVAH	r	b	1	2000	1	6	0	99	998	26-Apr-16	27	Red	p	1	1.3442	X	P	VYXT	GJPE	brb	rbr	3	2000	1	6	0	99	998	26-Apr-16	28	Red	l	1	1.2785	L	Q	GLZO	AQIB	rr	bb	2	2000	1	6	0	99	998	26-Apr-16	29	Red	z	1	0.9282	Z	C	WMZA	TDCP	brr	rbb	3	2000	1	6	0	99	99