SubID	SessionDate	Trial	TargetColor	Response	Correct	RT	leftTargetLetter	rightTargetLetter	leftLetters	rightLetters	leftColors	rightColors	trainLength	TOA	Mask	SOA	symbols	
21	04-Mar-2016	   1	Blue	t	1	1.0246	R	T	nnnR	nnnT	rbbr	brrb	4	2000	1	6	1
21	04-Mar-2016	   2	Blue	l	1	1.0395	I	L	I	L	r	b	1	2000	1	6	1
21	04-Mar-2016	   3	Blue	s	1	0.9195	Y	S	nY	nS	rr	bb	2	2000	1	6	1
21	04-Mar-2016	   4	Blue	a	1	1.1543	A	D	nA	nD	bb	rr	2	650	1	6	1
21	04-Mar-2016	   5	Blue	n	1	0.9567	P	N	P	N	r	b	1	2000	1	6	1
21	04-Mar-2016	   6	Blue	e	1	0.9141	L	E	nnL	nnE	brr	rbb	3	2000	1	6	1
21	04-Mar-2016	   7	Blue	e	1	1.0487	E	V	nnnE	nnnV	rrrb	bbbr	4	650	1	6	1
21	04-Mar-2016	   8	Blue	j	1	1.0241	J	I	nnJ	nnI	bbb	rrr	3	650	1	6	1
21	04-Mar-2016	   9	Blue	d	1	1.0075	D	Q	D	Q	b	r	1	650	1	6	1
21	04-Mar-2016	  10	Blue	r	0	1.4885	X	Q	nX	nQ	rb	br	2	650	1	6	1
21	04-Mar-2016	  11	Blue	r	1	1.1465	R	L	nnR	nnL	brb	rbr	3	2000	1	6	1
21	04-Mar-2016	  12	Blue	l	1	1.1326	C	L	nC	nL	rr	bb	2	650	1	6	1
21	04-Mar-2016	  13	Blue	y	1	1.0822	Y	B	nY	nB	bb	rr	2	650	1	6	1
21	04-Mar-2016	  14	Blue	l	1	1.1758	L	C	nnL	nnC	rrb	bbr	3	650	1	6	1
21	04-Mar-2016	  15	Blue	a	1	0.8618	M	A	nnM	nnA	bbr	rrb	3	2000	1	6	1
21	04-Mar-2016	  16	Blue	a	1	1.0614	A	W	nnnA	nnnW	brrb	rbbr	4	650	1	6	1
21	04-Mar-2016	  17	Blue	f	1	0.8844	F	Y	F	Y	b	r	1	650	1	6	1
21	04-Mar-2016	  18	Blue	o	0	1.4081	O	X	O	X	r	b	1	650	1	6	1
21	04-Mar-2016	  19	Blue	p	1	1.0014	U	P	U	P	r	b	1	2000	1	6	1
21	04-Mar-2016	  20	Blue	i	1	1.2137	I	U	nnnI	nnnU	brbb	rbrr	4	2000	1	6	1
21	04-Mar-2016	  21	Blue	d	1	1.0665	L	D	nnL	nnD	rrr	bbb	3	2000	1	6	1
21	04-Mar-2016	  22	Blue	o	1	1.1866	Z	O	nnZ	nnO	rrr	bbb	3	650	1	6	1
21	04-Mar-2016	  23	Blue	a	1	0.9074	L	A	L	A	r	b	1	2000	1	6	1
21	04-Mar-2016	  24	Blue	l	1	0.9677	L	Q	nL	nQ	bb	rr	2	2000	1	6	1
21	04-Mar-2016	  25	Blue	w	1	1.0629	D	W	nnnD	nnnW	brbr	rbrb	4	2000	1	6	1
21	04-Mar-2016	  26	Blue	r	0	0.8091	Y	G	nnnY	nnnG	rrrr	bbbb	4	2000	1	6	1
21	04-Mar-2016	  27	Blue	a	1	1.0825	A	P	nA	nP	bb	rr	2	2000	1	6	1
21	04-Mar-2016	  28	Blue	r	0	0.9058	O	Q	nO	nQ	rr	bb	2	2000	1	6	1
21	04-Mar-2016	  29	Blue	q	1	1.2067	Q	D	nnnQ	nnnD	rrrb	bbbr	4	650	1	6	1
21	04-Mar-2016	  30	Blue	b	0	0.8596	E	N	nnnE	nnnN	brrb	rbbr	4	650	1	6	1
21	04-Mar-2016	  31	Blue	i	1	0.9032	I	O	I	O	b	r	1	650	1	6	1
21	04-Mar-2016	  32	Blue	y	1	0.9964	J	Y	nnJ	nnY	rrr	bbb	3	650	1	6	1
21	04-Mar-2016	   1	Red	r	0	1.0866	X	L	nnX	nnL	rrr	bbb	3	650	1	6	1
21	04-Mar-2016	   2	Red	x	1	1.2150	X	F	nnX	nnF	rbr	brb	3	2000	1	6	1
21	04-Mar-2016	   3	Red	b	1	1.0253	B	N	nnB	nnN	rrr	bbb	3	650	1	6	1
21	04-Mar-2016	   4	Red	i	1	1.0127	I	Q	nnI	nnQ	rrr	bbb	3	2000	1	6	1
21	04-Mar-2016	   5	Red	g	1	1.0702	G	K	nnnG	nnnK	rrbr	bbrb	4	650	1	6	1
21	04-Mar-2016	   6	Red	o	1	1.1606	V	O	nnnV	nnnO	bbrb	rrbr	4	650	1	6	1
21	04-Mar-2016	   7	Red	e	1	1.0375	E	Y	nnE	nnY	bbr	rrb	3	2000	1	6	1
21	04-Mar-2016	   8	Red	o	1	1.0843	O	R	nO	nR	br	rb	2	650	1	6	1
21	04-Mar-2016	   9	Red	i	1	0.9553	L	I	nnL	nnI	bbb	rrr	3	650	1	6	1
21	04-Mar-2016	  10	Red	a	1	0.8934	A	U	A	U	r	b	1	650	1	6	1
21	04-Mar-2016	  11	Red	b	0	0.9214	K	O	nK	nO	br	rb	2	2000	1	6	1
21	04-Mar-2016	  12	Red	p	1	1.0217	H	P	nnH	nnP	rbb	brr	3	650	1	6	1
21	04-Mar-2016	  13	Red	c	1	0.9223	D	C	nnnD	nnnC	rrrb	bbbr	4	2000	1	6	1
21	04-Mar-2016	  14	Red	s	1	1.0451	Z	S	nZ	nS	rb	br	2	650	1	6	1
21	04-Mar-2016	  15	Red	q	0	2.0846	H	W	nH	nW	bb	rr	2	650	1	6	1
21	04-Mar-2016	  16	Red	j	1	1.0700	K	J	K	J	b	r	1	650	1	6	1
21	04-Mar-2016	  17	Red	w	0	1.1849	H	B	nnnH	nnnB	rrrb	bbbr	4	2000	1	6	1
21	04-Mar-2016	  18	Red	l	1	0.9489	L	B	nL	nB	rr	bb	2	2000	1	6	1
21	04-Mar-2016	  19	Red	f	1	0.7039	F	I	F	I	r	b	1	2000	1	6	1
21	04-Mar-2016	  20	Red	z	1	0.9745	Z	D	nnnZ	nnnD	bbrr	rrbb	4	2000	1	6	1
21	04-Mar-2016	  21	Red	y	0	2.2802	Z	H	Z	H	b	r	1	2000	1	6	1
21	04-Mar-2016	  22	Red	d	1	1.1407	D	A	nD	nA	rr	bb	2	2000	1	6	1
21	04-Mar-2016	  23	Red	u	1	1.3145	C	U	nnnC	nnnU	brrb	rbbr	4	650	1	6	1
21	04-Mar-2016	  24	Red	n	1	0.9361	N	Z	N	Z	r	b	1	2000	1	6	1
21	04-Mar-2016	  25	Red	c	0	1.5469	V	S	nV	nS	rb	br	2	650	1	6	1
21	04-Mar-2016	  26	Red	b	0	1.1290	Q	B	Q	B	r	b	1	650	1	6	1
21	04-Mar-2016	  27	Red	k	1	1.0483	K	Y	nnnK	nnnY	rrbr	bbrb	4	2000	1	6	1
21	04-Mar-2016	  28	Red	f	1	1.0716	F	R	F	R	r	b	1	2000	1	6	1
21	04-Mar-2016	  29	Red	k	0	1.3263	K	W	nK	nW	bb	rr	2	2000	1	6	1
21	04-Mar-2016	  30	Red	z	1	1.2295	F	Z	nnF	nnZ	brb	rbr	3	2000	1	6	1
21	04-Mar-2016	  31	Red	a	1	1.1187	A	M	A	M	r	b	1	650	1	6	1
21	04-Mar-2016	  32	Red	a	1	1.1014	A	B	nnnA	nnnB	brrr	rbbb	4	650	1	6	1
21	04-Mar-2016	   1	Blue	f	0	1.1781	F	X	F	X	r	b	1	2000	1	6	1
21	04-Mar-2016	   2	Blue	x	1	9.3161	X	Q	X	Q	b	r	1	2000	1	6	1
21	04-Mar-2016	   3	Blue	f	0	1.7538	O	F	O	F	b	r	1	2000	1	6	1
21	04-Mar-2016	   4	Blue	l	1	1.0486	Q	L	nQ	nL	br	rb	2	650	1	6	1
21	04-Mar-2016	   5	Blue	j	1	0.9935	P	J	nnP	nnJ	rbr	brb	3	2000	1	6	1
21	04-Mar-2016	   6	Blue	w	1	1.1364	W	Q	W	Q	b	r	1	650	1	6	1
21	04-Mar-2016	   7	Blue	b	0	0.9604	K	W	nnK	nnW	rbr	brb	3	2000	1	6	1
21	04-Mar-2016	   8	Blue	l	1	1.2115	L	T	nL	nT	rb	br	2	2000	1	6	1
21	04-Mar-2016	   9	Blue	j	0	1.1256	J	U	nnJ	nnU	brr	rbb	3	650	1	6	1
21	04-Mar-2016	  10	Blue	p	1	1.1530	P	I	nP	nI	bb	rr	2	650	1	6	1
21	04-Mar-2016	  11	Blue	a	1	0.9155	A	W	A	W	b	r	1	650	1	6	1
21	04-Mar-2016	  12	Blue	o	1	1.0567	O	F	nnO	nnF	rbb	brr	3	650	1	6	1
21	04-Mar-2016	  13	Blue	c	1	1.0008	Z	C	nZ	nC	br	rb	2	2000	1	6	1
21	04-Mar-2016	  14	Blue	y	1	0.9282	Y	C	Y	C	b	r	1	2000	1	6	1
21	04-Mar-2016	  15	Blue	t	1	1.0930	T	C	nT	nC	bb	rr	2	2000	1	6	1
21	04-Mar-2016	  16	Blue	b	1	1.0845	J	B	nnJ	nnB	brr	rbb	3	2000	1	6	1
21	04-Mar-2016	  17	Blue	t	0	2.6904	R	L	R	L	r	b	1	650	1	6	1
21	04-Mar-2016	  18	Blue	n	1	0.9221	N	G	nnN	nnG	bbb	rrr	3	2000	1	6	1
21	04-Mar-2016	  19	Blue	r	1	1.0570	R	M	nnnR	nnnM	rrrb	bbbr	4	2000	1	6	1
21	04-Mar-2016	  20	Blue	z	1	0.9459	Z	F	nnnZ	nnnF	bbrb	rrbr	4	650	1	6	1
21	04-Mar-2016	  21	Blue	i	1	1.0377	I	D	nI	nD	bb	rr	2	650	1	6	1
21	04-Mar-2016	  22	Blue	w	0	0.9268	R	Q	nnnR	nnnQ	rbrr	brbb	4	650	1	6	1
21	04-Mar-2016	  23	Blue	i	1	0.8139	O	I	nnnO	nnnI	brbr	rbrb	4	2000	1	6	1
21	04-Mar-2016	  24	Blue	r	1	1.5209	R	Z	nnnR	nnnZ	rbbb	brrr	4	650	1	6	1
21	04-Mar-2016	  25	Blue	n	1	0.8030	N	K	nnnN	nnnK	rrrb	bbbr	4	2000	1	6	1
21	04-Mar-2016	  26	Blue	l	1	1.3881	L	S	nL	nS	rb	br	2	2000	1	6	1
21	04-Mar-2016	  27	Blue	o	0	1.2491	Q	B	nnQ	nnB	rbb	brr	3	650	1	6	1
21	04-Mar-2016	  28	Blue	i	1	1.3871	I	C	nnnI	nnnC	rrrb	bbbr	4	650	1	6	1
21	04-Mar-2016	  29	Blue	a	1	0.3547	A	W	nnnA	nnnW	rbbb	brrr	4	2000	1	6	1
21	04-Mar-2016	  30	Blue	l	1	1.0569	R	L	R	L	r	b	1	650	1	6	1
21	04-Mar-2016	  31	Blue	l	1	1.4157	L	B	nL	nB	bb	rr	2	650	1	6	1
21	04-Mar-2016	  32	Blue	e	1	0.9873	S	E	nnS	nnE	bbr	rrb	3	650	1	6	1
21	04-Mar-2016	   1	Red	l	1	0.9878	T	L	nT	nL	rb	br	2	2000	1	6	1
21	04-Mar-2016	   2	Red	p	1	1.2800	P	B	nnnP	nnnB	brbr	rbrb	4	650	1	6	1
21	04-Mar-2016	   3	Red	e	1	0.9910	E	V	E	V	r	b	1	2000	1	6	1
21	04-Mar-2016	   4	Red	q	0	1.3934	I	P	nnI	nnP	rrb	bbr	3	650	1	6	1
21	04-Mar-2016	   5	Red	y	1	1.1659	Y	H	nnnY	nnnH	bbrr	rrbb	4	650	1	6	1
21	04-Mar-2016	   6	Red	r	0	1.9625	A	F	nA	nF	rr	bb	2	2000	1	6	1
21	04-Mar-2016	   7	Red	e	1	0.9529	E	S	nE	nS	rr	bb	2	650	1	6	1
21	04-Mar-2016	   8	Red	y	0	1.0826	V	Q	V	Q	r	b	1	650	1	6	1
21	04-Mar-2016	   9	Red	j	1	0.9480	C	J	nnC	nnJ	rrb	bbr	3	2000	1	6	1
21	04-Mar-2016	  10	Red	m	1	0.5631	J	M	nnnJ	nnnM	bbrb	rrbr	4	2000	1	6	1
21	04-Mar-2016	  11	Red	j	0	1.7871	C	Q	nC	nQ	br	rb	2	650	1	6	1
21	04-Mar-2016	  12	Red	k	1	0.9760	K	D	nnK	nnD	rrr	bbb	3	650	1	6	1
21	04-Mar-2016	  13	Red	d	1	0.9835	D	Q	nnnD	nnnQ	rrbr	bbrb	4	2000	1	6	1
21	04-Mar-2016	  14	Red	e	1	1.1916	Q	E	Q	E	b	r	1	650	1	6	1
21	04-Mar-2016	  15	Red	s	1	0.9865	E	S	nnE	nnS	rrb	bbr	3	650	1	6	1
21	04-Mar-2016	  16	Red	s	0	1.9163	O	R	nO	nR	rb	br	2	2000	1	6	1
21	04-Mar-2016	  17	Red	i	1	1.0316	I	K	nnI	nnK	bbr	rrb	3	2000	1	6	1
21	04-Mar-2016	  18	Red	y	1	0.9679	Y	I	nY	nI	rr	bb	2	650	1	6	1
21	04-Mar-2016	  19	Red	n	0	1.1444	B	A	B	A	r	b	1	650	1	6	1
21	04-Mar-2016	  20	Red	y	1	1.0600	Y	T	Y	T	r	b	1	2000	1	6	1
21	04-Mar-2016	  21	Red	z	1	0.8613	B	Z	nnB	nnZ	rrb	bbr	3	2000	1	6	1
21	04-Mar-2016	  22	Red	q	1	1.0184	F	Q	F	Q	b	r	1	2000	1	6	1
21	04-Mar-2016	  23	Red	y	1	0.9345	R	Y	nnnR	nnnY	bbbb	rrrr	4	2000	1	6	1
21	04-Mar-2016	  24	Red	j	1	1.0824	F	J	nF	nJ	bb	rr	2	650	1	6	1
21	04-Mar-2016	  25	Red	n	1	1.1517	Q	N	Q	N	b	r	1	2000	1	6	1
21	04-Mar-2016	  26	Red	r	0	1.0529	U	Y	nnnU	nnnY	bbbr	rrrb	4	650	1	6	1
21	04-Mar-2016	  27	Red	k	1	1.1838	K	I	nnnK	nnnI	rbrr	brbb	4	650	1	6	1
21	04-Mar-2016	  28	Red	v	1	1.0661	M	V	nM	nV	bb	rr	2	2000	1	6	1
21	04-Mar-2016	  29	Red	l	1	0.9012	L	M	nnnL	nnnM	rrrr	bbbb	4	2000	1	6	1
21	04-Mar-2016	  30	Red	s	1	1.1864	S	J	nnS	nnJ	rbr	brb	3	650	1	6	1
21	04-Mar-2016	  31	Red	e	1	1.6296	E	X	E	X	r	b	1	650	1	6	1
21	04-Mar-2016	  32	Red	s	1	0.9133	R	S	nnR	nnS	rbb	brr	3	2000	1	6	1
21	04-Mar-2016	   1	Blue	r	0	1.2997	U	W	UXKJ	WQLD	b	r	1	650	1	6	0
21	04-Mar-2016	   2	Blue	m	0	1.2661	H	J	LHEG	MJSP	rr	bb	2	2000	1	6	0
21	04-Mar-2016	   3	Blue	d	1	0.9614	Q	D	QLPX	DRWZ	r	b	1	2000	1	6	0
21	04-Mar-2016	   4	Blue	m	1	0.8662	Z	M	ZWNH	MPTV	r	b	1	2000	1	6	0
21	04-Mar-2016	   5	Blue	y	0	1.0163	Y	N	YLVZ	NOUC	r	b	1	2000	1	6	0
21	04-Mar-2016	   6	Blue	z	0	1.2055	H	J	WUZH	ICKJ	brbb	rbrr	4	2000	1	6	0
21	04-Mar-2016	   7	Blue	y	0	1.0588	K	E	DRUK	YLIE	rbbb	brrr	4	2000	1	6	0
21	04-Mar-2016	   8	Blue	j	0	1.0215	U	O	PYNU	JEMO	rrrr	bbbb	4	2000	1	6	0
21	04-Mar-2016	   9	Blue	i	0	1.2221	E	K	SEHQ	IKYJ	rb	br	2	2000	1	6	0
21	04-Mar-2016	  10	Blue	j	1	1.4559	N	J	HWNZ	SQJT	rbr	brb	3	650	1	6	0
21	04-Mar-2016	  11	Blue	j	0	1.8153	R	H	RTLF	HBQM	b	r	1	650	1	6	0
21	04-Mar-2016	  12	Blue	h	0	1.4289	V	U	ZVFT	SUAK	rr	bb	2	650	1	6	0
21	04-Mar-2016	  13	Blue	t	1	1.0095	T	Q	DHTZ	EBQJ	rrb	bbr	3	2000	1	6	0
21	04-Mar-2016	  14	Blue	q	0	1.4416	N	D	WJNO	XSDI	brb	rbr	3	650	1	6	0
21	04-Mar-2016	  15	Blue	m	0	1.2107	M	Z	TMUI	KZDB	br	rb	2	650	1	6	0
21	04-Mar-2016	  16	Blue	s	0	1.5730	P	W	PSIK	WHMF	b	r	1	2000	1	6	0
21	04-Mar-2016	  17	Blue	p	1	1.2359	P	I	ZBPC	DQIJ	brb	rbr	3	2000	1	6	0
21	04-Mar-2016	  18	Blue	t	1	1.0703	T	G	RBTE	QDGJ	rrb	bbr	3	2000	1	6	0
21	04-Mar-2016	  19	Blue	r	1	1.1442	U	R	NAUF	JBRE	brr	rbb	3	2000	1	6	0
21	04-Mar-2016	  20	Blue	l	0	1.0602	Q	I	LEQZ	CDIU	bbb	rrr	3	650	1	6	0
21	04-Mar-2016	  21	Blue	w	0	1.1329	H	D	EHZR	BDUC	br	rb	2	2000	1	6	0
21	04-Mar-2016	  22	Blue	y	0	1.0727	H	Q	YHWO	TQPE	bb	rr	2	650	1	6	0
21	04-Mar-2016	  23	Blue	t	0	1.1697	H	K	TUPH	MJOK	brrr	rbbb	4	650	1	6	0
21	04-Mar-2016	  24	Blue	q	0	1.3333	Y	B	DGYN	MEBU	rrr	bbb	3	650	1	6	0
21	04-Mar-2016	  25	Blue	z	0	1.0537	Y	K	GMZY	JFSK	bbbr	rrrb	4	650	1	6	0
21	04-Mar-2016	  26	Blue	a	1	1.2508	E	A	EKMQ	ATFZ	r	b	1	650	1	6	0
21	04-Mar-2016	  27	Blue	w	0	1.7909	X	B	FKAX	LYJB	bbbr	rrrb	4	650	1	6	0
21	04-Mar-2016	  28	Blue	q	0	1.4653	U	M	ULSC	MFQW	r	b	1	650	1	6	0
21	04-Mar-2016	  29	Blue	w	0	1.2027	I	T	OICY	XTKW	rb	br	2	650	1	6	0
21	04-Mar-2016	  30	Blue	z	0	1.2813	D	U	ZXBD	QTWU	rbbr	brrb	4	2000	1	6	0
21	04-Mar-2016	  31	Blue	o	0	1.1854	L	E	BLQA	OEUM	rr	bb	2	2000	1	6	0
21	04-Mar-2016	  32	Blue	i	0	1.2313	S	U	XDIS	TLAU	rbbb	brrr	4	650	1	6	0
21	04-Mar-2016	   1	Red	c	0	0.9407	S	Y	QCNS	JZMY	rrbb	bbrr	4	650	1	6	0
21	04-Mar-2016	   2	Red	i	1	0.9836	B	I	JBAE	VIRN	rb	br	2	2000	1	6	0
21	04-Mar-2016	   3	Red	y	0	1.0268	X	J	HVXE	AYJN	bbr	rrb	3	650	1	6	0
21	04-Mar-2016	   4	Red	k	0	1.1551	N	T	KNZY	QTHO	rr	bb	2	2000	1	6	0
21	04-Mar-2016	   5	Red	z	0	0.9290	Y	S	UNPY	ZOMS	bbrr	rrbb	4	650	1	6	0
21	04-Mar-2016	   6	Red	j	0	1.2517	H	X	JHGK	LXIS	rb	br	2	650	1	6	0
21	04-Mar-2016	   7	Red	n	1	1.5948	Y	N	YQDW	NPGJ	b	r	1	650	1	6	0
21	04-Mar-2016	   8	Red	u	1	1.2173	U	S	XKUE	ZRSY	brr	rbb	3	650	1	6	0
21	04-Mar-2016	   9	Red	u	0	1.5846	R	P	RAZV	PUKQ	b	r	1	650	1	6	0
21	04-Mar-2016	  10	Red	z	0	1.3558	U	K	UQEV	KYOD	b	r	1	2000	1	6	0
21	04-Mar-2016	  11	Red	z	0	1.5365	M	K	ZMSF	LKCH	rr	bb	2	650	1	6	0
21	04-Mar-2016	  12	Red	n	0	1.3213	C	Q	JSZC	NMTQ	brrb	rbbr	4	650	1	6	0
21	04-Mar-2016	  13	Red	j	0	1.1815	P	S	ZPXB	JSEM	bb	rr	2	650	1	6	0
21	04-Mar-2016	  14	Red	n	0	1.4314	D	R	DTZM	RNGU	b	r	1	2000	1	6	0
21	04-Mar-2016	  15	Red	j	0	1.2210	D	K	QLDH	JXKN	bbb	rrr	3	2000	1	6	0
21	04-Mar-2016	  16	Red	t	1	1.2185	C	T	SKLC	YJDT	brbb	rbrr	4	2000	1	6	0
21	04-Mar-2016	  17	Red	s	0	1.1150	D	E	SDAK	GEUR	rb	br	2	2000	1	6	0
21	04-Mar-2016	  18	Red	d	0	1.2411	W	A	DKWL	XVAY	rbr	brb	3	650	1	6	0
21	04-Mar-2016	  19	Red	s	1	1.3052	M	S	MPYB	SRIQ	b	r	1	650	1	6	0
21	04-Mar-2016	  20	Red	o	0	1.1604	Y	H	CWYP	OQHB	bbb	rrr	3	650	1	6	0
21	04-Mar-2016	  21	Red	e	0	2.0596	I	X	IEGJ	XKOP	b	r	1	2000	1	6	0
21	04-Mar-2016	  22	Red	i	0	1.2405	U	T	AMUN	KITH	bbb	rrr	3	2000	1	6	0
21	04-Mar-2016	  23	Red	p	1	1.5524	P	A	PIOJ	AXMC	r	b	1	2000	1	6	0
21	04-Mar-2016	  24	Red	i	0	1.0731	Q	A	SIQL	CFAG	rrb	bbr	3	2000	1	6	0
21	04-Mar-2016	  25	Red	e	0	1.0790	Q	A	XQPW	IAOF	br	rb	2	650	1	6	0
21	04-Mar-2016	  26	Red	c	0	1.1446	O	J	KHCO	GRDJ	rbrb	brbr	4	2000	1	6	0
21	04-Mar-2016	  27	Red	l	1	1.0747	L	X	LVDW	XPKZ	r	b	1	650	1	6	0
21	04-Mar-2016	  28	Red	r	1	1.0833	R	P	ORKF	XPLA	br	rb	2	2000	1	6	0
21	04-Mar-2016	  29	Red	r	0	1.5890	E	X	TMWE	KPNX	brbb	rbrr	4	2000	1	6	0
21	04-Mar-2016	  30	Red	l	0	1.2698	I	M	VWLI	GYTM	rrbb	bbrr	4	2000	1	6	0
21	04-Mar-2016	  31	Red	b	0	1.0304	G	O	CLGB	TQOX	rbr	brb	3	2000	1	6	0
21	04-Mar-2016	  32	Red	s	0	1.1206	O	X	IHMO	SDCX	brrb	rbbr	4	650	1	6	0
21	04-Mar-2016	   1	Blue	b	1	1.1019	B	K	BGWJ	KANZ	b	r	1	650	1	6	0
21	04-Mar-2016	   2	Blue	e	1	1.0591	E	C	BEQK	WCHY	rb	br	2	2000	1	6	0
21	04-Mar-2016	   3	Blue	b	0	1.1650	E	L	WIME	GRKL	rbbr	brrb	4	650	1	6	0
21	04-Mar-2016	   4	Blue	d	1	1.0036	D	V	NKID	BOHV	rrrb	bbbr	4	650	1	6	0
21	04-Mar-2016	   5	Blue	p	0	1.3156	X	T	PXUW	KTBN	bb	rr	2	2000	1	6	0
21	04-Mar-2016	   6	Blue	l	0	0.9979	Y	C	MBHY	IFLC	brrb	rbbr	4	2000	1	6	0
21	04-Mar-2016	   7	Blue	w	0	1.5501	J	Z	OJXR	KZVH	br	rb	2	650	1	6	0
21	04-Mar-2016	   8	Blue	p	1	1.5013	P	H	YPDC	EHFA	rb	br	2	650	1	6	0
21	04-Mar-2016	   9	Blue	j	0	0.9347	H	G	JCBH	FOTG	brbr	rbrb	4	650	1	6	0
21	04-Mar-2016	  10	Blue	r	0	1.7206	V	G	VBAP	GWXU	r	b	1	650	1	6	0
21	04-Mar-2016	  11	Blue	b	0	1.5769	Y	C	ZYQT	XCSU	rb	br	2	650	1	6	0
21	04-Mar-2016	  12	Blue	s	0	1.2068	P	G	QFPI	SLGE	rrb	bbr	3	2000	1	6	0
21	04-Mar-2016	  13	Blue	j	0	1.2590	U	A	WJUR	NKAP	bbr	rrb	3	650	1	6	0
21	04-Mar-2016	  14	Blue	r	0	1.4674	D	Q	RBDS	WVQF	brr	rbb	3	650	1	6	0
21	04-Mar-2016	  15	Blue	l	0	1.1355	N	B	RUHN	LXYB	rrrb	bbbr	4	2000	1	6	0
21	04-Mar-2016	  16	Blue	i	0	1.1750	K	N	FPKR	OINT	brr	rbb	3	2000	1	6	0
21	04-Mar-2016	  17	Blue	w	0	1.6881	X	L	XBUP	LZER	r	b	1	2000	1	6	0
21	04-Mar-2016	  18	Blue	p	0	1.1384	G	T	JYGC	SPTO	rrb	bbr	3	650	1	6	0
21	04-Mar-2016	  19	Blue	v	0	1.2969	N	U	BAVN	LQEU	brbr	rbrb	4	650	1	6	0
21	04-Mar-2016	  20	Blue	r	1	1.4064	G	R	GTOH	RSIM	r	b	1	650	1	6	0
21	04-Mar-2016	  21	Blue	e	1	0.9913	X	E	XPGM	ENWS	r	b	1	2000	1	6	0
21	04-Mar-2016	  22	Blue	f	1	1.1442	P	F	PBHN	FAJS	r	b	1	2000	1	6	0
21	04-Mar-2016	  23	Blue	t	0	1.1420	M	R	TYMF	AVRB	bbb	rrr	3	650	1	6	0
21	04-Mar-2016	  24	Blue	i	1	1.3450	I	Q	IESK	QAGL	b	r	1	650	1	6	0
21	04-Mar-2016	  25	Blue	y	1	1.3200	Y	U	QGYR	JLUI	brb	rbr	3	2000	1	6	0
21	04-Mar-2016	  26	Blue	k	0	1.0794	Q	S	GKQN	RPSO	rbb	brr	3	2000	1	6	0
21	04-Mar-2016	  27	Blue	h	0	1.2466	N	E	HNSV	KECG	br	rb	2	2000	1	6	0
21	04-Mar-2016	  28	Blue	i	0	1.4070	I	K	HIMY	OKEC	br	rb	2	2000	1	6	0
21	04-Mar-2016	  29	Blue	e	0	1.0932	Q	F	SKUQ	RCEF	brrb	rbbr	4	2000	1	6	0
21	04-Mar-2016	  30	Blue	o	1	1.1390	O	F	OLVC	FKUG	b	r	1	2000	1	6	0
21	04-Mar-2016	  31	Blue	j	1	1.1268	J	H	CJUL	THIZ	bb	rr	2	650	1	6	0
21	04-Mar-2016	  32	Blue	s	0	1.1198	M	C	NKEM	SJXC	rrbr	bbrb	4	2000	1	6	0
21	04-Mar-2016	   1	Red	z	0	1.2506	H	W	AHNL	MWEG	rr	bb	2	2000	1	6	0
21	04-Mar-2016	   2	Red	c	1	1.2653	Y	C	WYNI	KCVJ	rb	br	2	650	1	6	0
21	04-Mar-2016	   3	Red	i	0	1.1657	M	L	NIYM	XJPL	rrbr	bbrb	4	2000	1	6	0
21	04-Mar-2016	   4	Red	r	1	1.2187	R	S	TRPK	ASHJ	br	rb	2	2000	1	6	0
21	04-Mar-2016	   5	Red	d	0	0.9806	R	L	DNRG	VSLC	rbb	brr	3	650	1	6	0
21	04-Mar-2016	   6	Red	l	0	1.9334	L	T	LUDW	TCHM	b	r	1	2000	1	6	0
21	04-Mar-2016	   7	Red	r	0	1.2611	R	C	REUZ	CNXM	b	r	1	2000	1	6	0
21	04-Mar-2016	   8	Red	h	0	0.9518	P	N	HGXP	SURN	rbrb	brbr	4	2000	1	6	0
21	04-Mar-2016	   9	Red	c	0	1.2223	P	Q	CDPR	NVQZ	rbr	brb	3	2000	1	6	0
21	04-Mar-2016	  10	Red	w	1	1.9431	W	X	WVNC	XBYK	r	b	1	2000	1	6	0
21	04-Mar-2016	  11	Red	e	0	1.3191	H	Q	EFHW	UKQD	rrr	bbb	3	650	1	6	0
21	04-Mar-2016	  12	Red	u	0	1.3847	L	K	PXUL	QWSK	bbrr	rrbb	4	650	1	6	0
21	04-Mar-2016	  13	Red	i	0	1.0584	U	D	BUNX	IDOY	br	rb	2	650	1	6	0
21	04-Mar-2016	  14	Red	i	0	1.1718	T	Z	DEOT	IKXZ	brbr	rbrb	4	650	1	6	0
21	04-Mar-2016	  15	Red	w	0	1.2555	M	R	ZMDP	LRNA	rb	br	2	2000	1	6	0
21	04-Mar-2016	  16	Red	r	0	1.6377	K	B	KGCZ	BFSN	b	r	1	650	1	6	0
21	04-Mar-2016	  17	Red	p	0	1.2174	R	K	CSRY	MPKE	bbb	rrr	3	650	1	6	0
21	04-Mar-2016	  18	Red	q	0	1.3799	M	T	QMDA	CTEO	br	rb	2	2000	1	6	0
21	04-Mar-2016	  19	Red	g	1	1.3555	X	G	NBAX	DOTG	brbb	rbrr	4	2000	1	6	0
21	04-Mar-2016	  20	Red	j	1	1.3669	J	Q	JSZH	QTWN	r	b	1	650	1	6	0
21	04-Mar-2016	  21	Red	i	0	1.1904	U	P	BLZU	QIJP	bbbr	rrrb	4	650	1	6	0
21	04-Mar-2016	  22	Red	a	1	1.1225	A	G	HBAC	MQGX	rbr	brb	3	2000	1	6	0
21	04-Mar-2016	  23	Red	w	0	1.5752	B	Z	WBQN	TZDV	rb	br	2	650	1	6	0
21	04-Mar-2016	  24	Red	a	0	1.1121	Q	K	FVSQ	AIHK	brbr	rbrb	4	2000	1	6	0
21	04-Mar-2016	  25	Red	w	0	2.0284	V	Q	VECL	QNGB	r	b	1	650	1	6	0
21	04-Mar-2016	  26	Red	s	0	1.2190	Y	D	VIJY	UESD	brbb	rbrr	4	650	1	6	0
21	04-Mar-2016	  27	Red	r	0	1.6273	R	V	IRZP	JVQO	rb	br	2	650	1	6	0
21	04-Mar-2016	  28	Red	o	1	1.1929	E	O	PMEJ	ZGOQ	bbb	rrr	3	2000	1	6	0
21	04-Mar-2016	  29	Red	j	1	2.0508	K	J	KFDN	JGMU	b	r	1	650	1	6	0
21	04-Mar-2016	  30	Red	f	0	1.1288	N	W	FKNC	GMWE	rbb	brr	3	2000	1	6	0
21	04-Mar-2016	  31	Red	j	0	2.1578	T	Y	CXTB	JGYV	brr	rbb	3	650	1	6	0
21	04-Mar-2016	  32	Red	g	0	1.9818	X	W	XTZA	WUKO	r	b	1	2000	1	6	0
