SubID	SessionDate	Trial	TargetColor	Response	Correct	RT	leftTargetLetter	rightTargetLetter	leftLetters	rightLetters	leftColors	rightColors	trainLength	TOA	Mask	SOA	symbols	
1	05-Feb-2016	   1	Red	h	1	1.3636	H	K	YHOQ	LKEX	rr	bb	2	2000	1	6	0
1	05-Feb-2016	   2	Red	w	1	1.1286	W	M	RWOS	KMVL	rr	bb	2	650	1	6	0
1	05-Feb-2016	   3	Red	t	0	1.6300	W	Z	QTBW	VHYZ	rrbb	bbrr	4	650	1	6	0
1	05-Feb-2016	   4	Red	q	1	1.0415	Q	E	NQVX	JEFT	rr	bb	2	650	1	6	0
1	05-Feb-2016	   5	Red	e	1	0.7845	A	E	JATM	UECZ	bb	rr	2	2000	1	6	0
1	05-Feb-2016	   6	Red	j	1	0.8871	J	C	YOKJ	MLHC	brbr	rbrb	4	2000	1	6	0
1	05-Feb-2016	   7	Red	d	1	1.7160	G	D	RCGZ	ONDF	bbb	rrr	3	650	1	6	0
1	05-Feb-2016	   8	Red	h	1	1.6757	F	H	EFIG	RHNO	bb	rr	2	650	1	6	0
1	05-Feb-2016	   9	Red	y	1	1.0517	Y	S	YKCW	SLRF	r	b	1	2000	1	6	0
1	05-Feb-2016	  10	Red	v	1	0.8677	J	V	TJRK	AVQS	bb	rr	2	2000	1	6	0
1	05-Feb-2016	  11	Red	l	1	1.5293	L	T	LJUS	TWPA	r	b	1	650	1	6	0
1	05-Feb-2016	  12	Red	u	1	2.0300	U	O	UZKP	OBJM	r	b	1	650	1	6	0
1	05-Feb-2016	  13	Red	o	1	4.5524	O	E	FVKO	LDIE	bbrr	rrbb	4	2000	1	6	0
1	05-Feb-2016	  14	Red	e	0	3.1906	B	L	OTBR	MELD	rbb	brr	3	650	1	6	0
1	05-Feb-2016	  15	Red	d	1	0.9481	D	F	YNDR	QWFX	brr	rbb	3	2000	1	6	0
1	05-Feb-2016	  16	Red	j	0	1.9436	O	X	AJOL	DHXV	rrr	bbb	3	650	1	6	0
1	05-Feb-2016	  17	Red	m	1	1.0984	X	M	JTEX	RLDM	rrbb	bbrr	4	650	1	6	0
1	05-Feb-2016	  18	Red	e	1	2.2322	C	E	CUHA	EFSG	b	r	1	650	1	6	0
1	05-Feb-2016	  19	Red	c	1	1.1435	J	C	SAJX	RVCY	brb	rbr	3	2000	1	6	0
1	05-Feb-2016	  20	Red	i	1	0.8738	X	I	XHOU	ILJY	b	r	1	2000	1	6	0
1	05-Feb-2016	  21	Red	z	0	2.0639	Y	Z	ESYV	MDZG	rbr	brb	3	650	1	6	0
1	05-Feb-2016	  22	Red	g	1	3.0361	G	S	GIVW	SDCT	r	b	1	650	1	6	0
1	05-Feb-2016	  23	Red	b	0	1.3737	X	K	BXYG	LKNT	rb	br	2	650	1	6	0
1	05-Feb-2016	  24	Red	s	1	1.3958	X	S	AHRX	KEBS	bbrb	rrbr	4	650	1	6	0
1	05-Feb-2016	  25	Red	r	1	1.2327	M	R	YHIM	SZUR	rbrb	brbr	4	650	1	6	0
1	05-Feb-2016	  26	Red	h	0	0.8598	V	N	XFVP	CHNT	bbr	rrb	3	2000	1	6	0
1	05-Feb-2016	  27	Red	p	0	0.9268	C	E	ZTPC	SWQE	rrrb	bbbr	4	2000	1	6	0
1	05-Feb-2016	  28	Red	a	1	1.2578	A	I	HAOX	UIKC	br	rb	2	2000	1	6	0
1	05-Feb-2016	  29	Red	c	1	1.1324	C	I	QACP	STIV	rrr	bbb	3	2000	1	6	0
1	05-Feb-2016	  30	Red	d	1	1.0720	H	D	HGXQ	DFEO	b	r	1	2000	1	6	0
1	05-Feb-2016	  31	Red	n	1	1.5404	S	N	SZKT	NOHL	b	r	1	2000	1	6	0
1	05-Feb-2016	  32	Red	l	0	0.5341	P	U	WHTP	LKGU	bbrb	rrbr	4	2000	1	6	0
1	05-Feb-2016	   1	Blue	s	0	1.6269	C	I	ASRC	OQMI	bbrr	rrbb	4	650	1	6	0
1	05-Feb-2016	   2	Blue	v	0	2.1097	E	C	GVEY	RKCN	bbr	rrb	3	650	1	6	0
1	05-Feb-2016	   3	Blue	k	0	0.9658	M	I	UFVM	KDQI	rbrr	brbb	4	2000	1	6	0
1	05-Feb-2016	   4	Blue	l	0	1.2322	C	S	HLCJ	OTSI	bbr	rrb	3	650	1	6	0
1	05-Feb-2016	   5	Blue	q	0	2.7837	D	E	DCOU	EGSV	b	r	1	2000	1	6	0
1	05-Feb-2016	   6	Blue	p	1	1.2779	B	P	ECBR	UHPK	brr	rbb	3	2000	1	6	0
1	05-Feb-2016	   7	Blue	r	0	3.1798	U	G	UARM	GZTF	r	b	1	2000	1	6	0
1	05-Feb-2016	   8	Blue	r	0	1.3845	J	O	XJMF	ROAC	rb	br	2	650	1	6	0
1	05-Feb-2016	   9	Blue	b	1	1.4349	B	Y	BWCA	YKSU	b	r	1	2000	1	6	0
1	05-Feb-2016	  10	Blue	u	0	1.2398	P	R	HQCP	KDUR	brrb	rbbr	4	650	1	6	0
1	05-Feb-2016	  11	Blue	p	0	1.2745	I	J	KWPI	XNQJ	brbb	rbrr	4	650	1	6	0
1	05-Feb-2016	  12	Blue	e	1	2.6907	E	O	DEBC	YOTG	rb	br	2	2000	1	6	0
1	05-Feb-2016	  13	Blue	u	0	1.5869	R	A	QEUR	ITYA	bbbr	rrrb	4	650	1	6	0
1	05-Feb-2016	  14	Blue	x	1	2.2535	N	X	NLYU	XPZK	r	b	1	650	1	6	0
1	05-Feb-2016	  15	Blue	u	1	1.9064	U	Y	UASJ	YHNM	b	r	1	650	1	6	0
1	05-Feb-2016	  16	Blue	r	1	1.0908	R	H	XRMK	CHNV	bb	rr	2	2000	1	6	0
1	05-Feb-2016	  17	Blue	k	0	1.2940	R	Y	EJPR	BKNY	rrrb	bbbr	4	2000	1	6	0
1	05-Feb-2016	  18	Blue	d	0	5.6289	N	R	DNWO	CRIG	br	rb	2	2000	1	6	0
1	05-Feb-2016	  19	Blue	l	0	2.7970	U	K	TRUH	FGKZ	bbr	rrb	3	650	1	6	0
1	05-Feb-2016	  20	Blue	m	0	2.2462	I	D	MIWA	VDEC	br	rb	2	650	1	6	0
1	05-Feb-2016	  21	Blue	j	1	0.8406	U	J	AFCU	PLVJ	bbbr	rrrb	4	2000	1	6	0
1	05-Feb-2016	  22	Blue	h	1	1.0493	L	H	WOLJ	VGHA	brr	rbb	3	2000	1	6	0
1	05-Feb-2016	  23	Blue	s	1	1.0265	O	S	NKOU	XHSM	rrr	bbb	3	2000	1	6	0
1	05-Feb-2016	  24	Blue	n	1	2.4262	R	N	RSQA	NMTK	r	b	1	650	1	6	0
1	05-Feb-2016	  25	Blue	s	0	1.4800	C	N	CHZG	NOMY	b	r	1	2000	1	6	0
1	05-Feb-2016	  26	Blue	t	0	1.2883	G	F	TGSX	WFQM	br	rb	2	650	1	6	0
1	05-Feb-2016	  27	Blue	u	0	1.0152	V	A	DXVT	UHAE	rrb	bbr	3	650	1	6	0
1	05-Feb-2016	  28	Blue	i	0	0.7946	N	G	LUNP	MIGE	brr	rbb	3	2000	1	6	0
1	05-Feb-2016	  29	Blue	j	1	1.1095	Y	J	QFTY	AWGJ	bbbr	rrrb	4	2000	1	6	0
1	05-Feb-2016	  30	Blue	q	1	2.0677	Q	Y	QSBT	YGFE	b	r	1	650	1	6	0
1	05-Feb-2016	  31	Blue	m	0	1.7734	Y	G	TYSW	MGZD	rr	bb	2	650	1	6	0
1	05-Feb-2016	  32	Blue	a	0	1.0368	L	H	ALRW	VHPI	br	rb	2	2000	1	6	0
1	05-Feb-2016	   1	Red	k	0	1.1878	I	F	YTSI	KEDF	bbbr	rrrb	4	650	1	6	0
1	05-Feb-2016	   2	Red	y	0	1.3804	P	N	DPMT	YNEG	br	rb	2	650	1	6	0
1	05-Feb-2016	   3	Red	f	1	1.0966	F	X	FGER	XQCP	r	b	1	650	1	6	0
1	05-Feb-2016	   4	Red	q	0	0.4538	O	J	XOZD	QJKG	br	rb	2	2000	1	6	0
1	05-Feb-2016	   5	Red	g	1	1.1410	S	G	MLSW	TBGI	bbb	rrr	3	2000	1	6	0
1	05-Feb-2016	   6	Red	q	1	1.4165	Q	P	QRAC	PDLU	r	b	1	2000	1	6	0
1	05-Feb-2016	   7	Red	l	1	0.9149	N	L	GFNU	YKLH	rbb	brr	3	650	1	6	0
1	05-Feb-2016	   8	Red	k	0	1.3640	Z	W	IQJZ	SMKW	rbbr	brrb	4	2000	1	6	0
1	05-Feb-2016	   9	Red	j	1	0.9530	J	P	VTJR	KNPO	bbr	rrb	3	650	1	6	0
1	05-Feb-2016	  10	Red	c	1	1.1644	C	B	ICKU	OBQP	rr	bb	2	2000	1	6	0
1	05-Feb-2016	  11	Red	b	0	1.0348	R	V	NMBR	XQLV	brrb	rbbr	4	650	1	6	0
1	05-Feb-2016	  12	Red	i	1	0.7972	W	I	YRDW	OCSI	brbb	rbrr	4	650	1	6	0
1	05-Feb-2016	  13	Red	j	1	0.8693	J	I	STJH	NBIQ	rrr	bbb	3	650	1	6	0
1	05-Feb-2016	  14	Red	a	1	1.0215	A	H	ZNAF	XSHL	brr	rbb	3	2000	1	6	0
1	05-Feb-2016	  15	Red	c	1	1.2475	C	G	HVAC	OXSG	rrrr	bbbb	4	650	1	6	0
1	05-Feb-2016	  16	Red	h	0	2.2981	N	G	SQNR	MHGE	bbb	rrr	3	2000	1	6	0
1	05-Feb-2016	  17	Red	r	1	1.6932	R	H	RPUV	HXWQ	r	b	1	650	1	6	0
1	05-Feb-2016	  18	Red	f	0	1.3579	O	W	GOXH	FWUI	bb	rr	2	650	1	6	0
1	05-Feb-2016	  19	Red	k	0	1.0512	Y	X	TYSP	KXGD	bb	rr	2	2000	1	6	0
1	05-Feb-2016	  20	Red	n	1	1.1217	F	N	FBVU	NGMR	b	r	1	2000	1	6	0
1	05-Feb-2016	  21	Red	o	0	0.9697	L	C	BFAL	YHOC	bbbr	rrrb	4	2000	1	6	0
1	05-Feb-2016	  22	Red	z	0	1.9555	G	K	DGAW	ZKSY	rr	bb	2	650	1	6	0
1	05-Feb-2016	  23	Red	r	0	1.4039	Q	O	BQFY	ROXL	rb	br	2	650	1	6	0
1	05-Feb-2016	  24	Red	i	1	0.8700	I	H	BIGP	ZHOK	br	rb	2	2000	1	6	0
1	05-Feb-2016	  25	Red	w	1	0.8627	W	A	TCWR	YKAZ	rrr	bbb	3	2000	1	6	0
1	05-Feb-2016	  26	Red	y	1	0.9065	Y	C	YTOQ	CIUW	r	b	1	2000	1	6	0
1	05-Feb-2016	  27	Red	y	1	0.8854	F	Y	FIZM	YQGH	b	r	1	2000	1	6	0
1	05-Feb-2016	  28	Red	m	1	1.7134	Z	M	ZIPW	MGCJ	b	r	1	650	1	6	0
1	05-Feb-2016	  29	Red	d	0	0.7757	W	Y	KXQW	FHDY	rbbr	brrb	4	2000	1	6	0
1	05-Feb-2016	  30	Red	e	0	1.0885	J	G	CEJO	VAGK	rrb	bbr	3	650	1	6	0
1	05-Feb-2016	  31	Red	d	0	0.8182	Z	R	YJIZ	XSDR	rbbr	brrb	4	2000	1	6	0
1	05-Feb-2016	  32	Red	w	0	5.7845	F	E	FQTO	ESLI	r	b	1	650	1	6	0
1	05-Feb-2016	   1	Blue	l	0	1.6048	P	V	PFNL	VWYH	r	b	1	2000	1	6	0
1	05-Feb-2016	   2	Blue	c	1	1.0438	S	C	OFVS	EZKC	rrbr	bbrb	4	2000	1	6	0
1	05-Feb-2016	   3	Blue	s	1	1.7794	S	Z	SFMR	ZCQT	b	r	1	650	1	6	0
1	05-Feb-2016	   4	Blue	y	1	0.8990	Y	J	KDYI	RWJB	rrb	bbr	3	2000	1	6	0
1	05-Feb-2016	   5	Blue	s	0	1.0177	V	I	UCVN	SJIZ	rbr	brb	3	650	1	6	0
1	05-Feb-2016	   6	Blue	n	0	1.0404	Q	R	KQFZ	NRDP	rr	bb	2	650	1	6	0
1	05-Feb-2016	   7	Blue	o	0	1.2429	M	J	TOHM	PFQJ	bbrb	rrbr	4	650	1	6	0
1	05-Feb-2016	   8	Blue	s	1	0.7821	S	U	CHJS	NTZU	rbrb	brbr	4	2000	1	6	0
1	05-Feb-2016	   9	Blue	i	1	0.8346	Y	I	DVGY	KUWI	brbr	rbrb	4	650	1	6	0
1	05-Feb-2016	  10	Blue	i	1	1.4012	A	I	CANU	LIHT	br	rb	2	650	1	6	0
1	05-Feb-2016	  11	Blue	n	0	0.9555	E	I	NEZJ	QITF	bb	rr	2	2000	1	6	0
1	05-Feb-2016	  12	Blue	u	1	1.8295	A	U	AOBY	UKCD	r	b	1	650	1	6	0
1	05-Feb-2016	  13	Blue	d	0	1.6018	K	H	DKWL	SHRO	bb	rr	2	650	1	6	0
1	05-Feb-2016	  14	Blue	b	1	0.8945	B	U	SKBF	CZUP	rbb	brr	3	2000	1	6	0
1	05-Feb-2016	  15	Blue	d	1	0.8703	W	D	UEKW	MIVD	brbr	rbrb	4	650	1	6	0
1	05-Feb-2016	  16	Blue	u	1	1.0212	B	U	DFBA	HRUT	rrr	bbb	3	2000	1	6	0
1	05-Feb-2016	  17	Blue	f	0	2.7739	F	H	FGCK	HZDU	r	b	1	650	1	6	0
1	05-Feb-2016	  18	Blue	d	0	2.6151	G	D	GEQJ	DCXA	b	r	1	2000	1	6	0
1	05-Feb-2016	  19	Blue	o	0	2.1553	Z	D	FJOZ	GISD	rrbr	bbrb	4	2000	1	6	0
1	05-Feb-2016	  20	Blue	v	1	1.0119	V	B	VMJQ	BFTZ	b	r	1	2000	1	6	0
1	05-Feb-2016	  21	Blue	c	0	1.0055	E	P	TOEF	CXPG	rrr	bbb	3	650	1	6	0
1	05-Feb-2016	  22	Blue	y	1	0.9573	Y	I	NYJT	KIUC	rb	br	2	2000	1	6	0
1	05-Feb-2016	  23	Blue	u	1	1.1295	P	U	DPRS	CUXI	rr	bb	2	2000	1	6	0
1	05-Feb-2016	  24	Blue	z	1	1.0139	Z	G	ZMHY	GAES	b	r	1	2000	1	6	0
1	05-Feb-2016	  25	Blue	s	1	0.9100	U	S	AUTZ	PSEJ	rr	bb	2	2000	1	6	0
1	05-Feb-2016	  26	Blue	c	0	0.8984	L	W	CLRQ	JWKM	bb	rr	2	650	1	6	0
1	05-Feb-2016	  27	Blue	r	1	1.6359	R	K	RZHM	KBOV	b	r	1	650	1	6	0
1	05-Feb-2016	  28	Blue	i	1	0.8678	I	C	AJEI	MTDC	rrbb	bbrr	4	2000	1	6	0
1	05-Feb-2016	  29	Blue	c	1	0.9318	C	V	SGCD	QRVA	rrb	bbr	3	2000	1	6	0
1	05-Feb-2016	  30	Blue	e	1	1.2090	E	R	CXEJ	VWRD	bbb	rrr	3	650	1	6	0
1	05-Feb-2016	  31	Blue	f	1	0.8669	F	G	MOFA	ZUGJ	rrb	bbr	3	650	1	6	0
1	05-Feb-2016	  32	Blue	c	0	1.0756	B	F	PXIB	GSCF	rbrb	brbr	4	650	1	6	0
1	05-Feb-2016	   1	Red	x	1	0.9611	Z	X	nnnZ	nnnX	brrb	rbbr	4	650	1	6	1
1	05-Feb-2016	   2	Red	w	1	1.1628	W	M	W	M	r	b	1	650	1	6	1
1	05-Feb-2016	   3	Red	l	1	1.0238	Q	L	nnnQ	nnnL	rbbb	brrr	4	650	1	6	1
1	05-Feb-2016	   4	Red	w	1	0.9583	W	J	W	J	r	b	1	650	1	6	1
1	05-Feb-2016	   5	Red	j	1	0.7391	J	S	nnJ	nnS	rrr	bbb	3	2000	1	6	1
1	05-Feb-2016	   6	Red	d	1	0.8085	G	D	nnnG	nnnD	bbrb	rrbr	4	2000	1	6	1
1	05-Feb-2016	   7	Red	j	0	2.3924	W	E	nW	nE	br	rb	2	650	1	6	1
1	05-Feb-2016	   8	Red	x	1	0.9988	V	X	V	X	b	r	1	650	1	6	1
1	05-Feb-2016	   9	Red	e	1	0.9413	K	E	nnnK	nnnE	rbbb	brrr	4	2000	1	6	1
1	05-Feb-2016	  10	Red	h	1	0.9079	H	G	nnnH	nnnG	bbrr	rrbb	4	2000	1	6	1
1	05-Feb-2016	  11	Red	g	1	1.0241	G	W	nnG	nnW	bbr	rrb	3	650	1	6	1
1	05-Feb-2016	  12	Red	x	1	1.8906	Q	X	nQ	nX	rb	br	2	2000	1	6	1
1	05-Feb-2016	  13	Red	u	1	0.8580	R	U	nR	nU	bb	rr	2	650	1	6	1
1	05-Feb-2016	  14	Red	p	1	1.0357	C	P	nnC	nnP	rrb	bbr	3	2000	1	6	1
1	05-Feb-2016	  15	Red	l	1	1.1138	I	L	I	L	b	r	1	650	1	6	1
1	05-Feb-2016	  16	Red	w	1	1.0094	E	W	nnnE	nnnW	rrbb	bbrr	4	650	1	6	1
1	05-Feb-2016	  17	Red	r	1	1.1177	V	R	nnnV	nnnR	rbrb	brbr	4	2000	1	6	1
1	05-Feb-2016	  18	Red	h	1	1.0829	H	W	H	W	r	b	1	2000	1	6	1
1	05-Feb-2016	  19	Red	u	1	0.7393	V	U	nnV	nnU	rrb	bbr	3	2000	1	6	1
1	05-Feb-2016	  20	Red	u	0	1.6432	D	V	D	V	r	b	1	2000	1	6	1
1	05-Feb-2016	  21	Red	p	1	0.9271	T	P	T	P	b	r	1	2000	1	6	1
1	05-Feb-2016	  22	Red	p	1	0.8965	S	P	nS	nP	rb	br	2	650	1	6	1
1	05-Feb-2016	  23	Red	a	1	1.1093	W	A	nW	nA	bb	rr	2	2000	1	6	1
1	05-Feb-2016	  24	Red	m	1	0.8996	M	G	nM	nG	rr	bb	2	650	1	6	1
1	05-Feb-2016	  25	Red	h	1	0.7669	I	H	nI	nH	bb	rr	2	2000	1	6	1
1	05-Feb-2016	  26	Red	g	1	1.0404	P	G	P	G	b	r	1	2000	1	6	1
1	05-Feb-2016	  27	Red	i	1	0.8404	I	Z	nnI	nnZ	brr	rbb	3	650	1	6	1
1	05-Feb-2016	  28	Red	s	1	0.9525	U	S	nnU	nnS	rrb	bbr	3	650	1	6	1
1	05-Feb-2016	  29	Red	k	0	4.2617	H	S	nnH	nnS	brr	rbb	3	2000	1	6	1
1	05-Feb-2016	  30	Red	y	1	0.9257	Y	D	nnnY	nnnD	brrr	rbbb	4	650	1	6	1
1	05-Feb-2016	  31	Red	s	0	1.0105	X	T	nX	nT	bb	rr	2	2000	1	6	1
1	05-Feb-2016	  32	Red	x	1	0.7951	X	K	nnX	nnK	brr	rbb	3	650	1	6	1
1	05-Feb-2016	   1	Blue	b	1	0.7821	B	U	nnB	nnU	rbb	brr	3	650	1	6	1
1	05-Feb-2016	   2	Blue	p	1	0.7595	Z	P	nnZ	nnP	bbr	rrb	3	650	1	6	1
1	05-Feb-2016	   3	Blue	n	1	0.6306	E	N	E	N	r	b	1	650	1	6	1
1	05-Feb-2016	   4	Blue	g	1	0.8397	X	G	nnX	nnG	rrr	bbb	3	2000	1	6	1
1	05-Feb-2016	   5	Blue	t	0	2.2236	K	T	nnnK	nnnT	rrbb	bbrr	4	650	1	6	1
1	05-Feb-2016	   6	Blue	e	1	1.0185	C	E	nnnC	nnnE	rrbr	bbrb	4	2000	1	6	1
1	05-Feb-2016	   7	Blue	h	1	0.9088	H	I	nnH	nnI	rbb	brr	3	650	1	6	1
1	05-Feb-2016	   8	Blue	t	1	0.9850	T	R	nT	nR	rb	br	2	2000	1	6	1
1	05-Feb-2016	   9	Blue	i	1	0.9914	I	F	nnnI	nnnF	brbb	rbrr	4	2000	1	6	1
1	05-Feb-2016	  10	Blue	q	0	0.9422	S	D	S	D	r	b	1	2000	1	6	1
1	05-Feb-2016	  11	Blue	q	1	1.0416	H	Q	nH	nQ	br	rb	2	650	1	6	1
1	05-Feb-2016	  12	Blue	i	1	0.9044	I	P	nI	nP	rb	br	2	650	1	6	1
1	05-Feb-2016	  13	Blue	k	1	0.8319	K	S	nnK	nnS	rbb	brr	3	2000	1	6	1
1	05-Feb-2016	  14	Blue	k	1	1.2134	S	K	nS	nK	rr	bb	2	650	1	6	1
1	05-Feb-2016	  15	Blue	r	1	0.7788	B	R	nnnB	nnnR	rbbr	brrb	4	650	1	6	1
1	05-Feb-2016	  16	Blue	d	1	0.8486	D	L	D	L	b	r	1	650	1	6	1
1	05-Feb-2016	  17	Blue	b	1	0.7555	U	B	nnnU	nnnB	brrr	rbbb	4	2000	1	6	1
1	05-Feb-2016	  18	Blue	a	1	1.1257	A	O	nA	nO	bb	rr	2	2000	1	6	1
1	05-Feb-2016	  19	Blue	v	1	3.4199	L	V	nnnL	nnnV	rrbr	bbrb	4	650	1	6	1
1	05-Feb-2016	  20	Blue	t	1	0.4409	O	T	O	T	r	b	1	2000	1	6	1
1	05-Feb-2016	  21	Blue	v	0	1.1890	B	V	nnB	nnV	brb	rbr	3	650	1	6	1
1	05-Feb-2016	  22	Blue	w	0	1.5358	G	D	G	D	b	r	1	2000	1	6	1
1	05-Feb-2016	  23	Blue	v	1	0.7185	V	Z	nnV	nnZ	rrb	bbr	3	2000	1	6	1
1	05-Feb-2016	  24	Blue	j	1	0.7557	M	J	nM	nJ	rr	bb	2	2000	1	6	1
1	05-Feb-2016	  25	Blue	c	0	1.8837	D	Z	nD	nZ	bb	rr	2	650	1	6	1
1	05-Feb-2016	  26	Blue	u	1	0.8072	Q	U	nnnQ	nnnU	rrrr	bbbb	4	650	1	6	1
1	05-Feb-2016	  27	Blue	b	1	0.7581	L	B	L	B	r	b	1	2000	1	6	1
1	05-Feb-2016	  28	Blue	y	1	0.7066	A	Y	nnA	nnY	brr	rbb	3	2000	1	6	1
1	05-Feb-2016	  29	Blue	l	1	0.7206	A	L	nnnA	nnnL	bbrr	rrbb	4	2000	1	6	1
1	05-Feb-2016	  30	Blue	r	1	1.3644	F	R	nF	nR	br	rb	2	2000	1	6	1
1	05-Feb-2016	  31	Blue	a	1	0.8170	A	K	A	K	b	r	1	650	1	6	1
1	05-Feb-2016	  32	Blue	y	1	0.9022	K	Y	K	Y	r	b	1	650	1	6	1
1	05-Feb-2016	   1	Red	f	1	0.9325	W	F	nnW	nnF	brb	rbr	3	2000	1	6	1
1	05-Feb-2016	   2	Red	d	1	0.6415	D	C	nnnD	nnnC	rrrr	bbbb	4	650	1	6	1
1	05-Feb-2016	   3	Red	v	1	0.8969	R	V	nR	nV	bb	rr	2	2000	1	6	1
1	05-Feb-2016	   4	Red	l	1	0.7667	L	Q	nnL	nnQ	bbr	rrb	3	2000	1	6	1
1	05-Feb-2016	   5	Red	r	1	0.8089	G	R	nG	nR	rb	br	2	2000	1	6	1
1	05-Feb-2016	   6	Red	y	1	0.2453	Z	Y	nnnZ	nnnY	rbrb	brbr	4	2000	1	6	1
1	05-Feb-2016	   7	Red	a	1	0.6716	A	O	nA	nO	br	rb	2	2000	1	6	1
1	05-Feb-2016	   8	Red	c	1	0.2728	U	C	nnnU	nnnC	rbbb	brrr	4	2000	1	6	1
1	05-Feb-2016	   9	Red	r	1	0.7312	E	R	E	R	b	r	1	2000	1	6	1
1	05-Feb-2016	  10	Red	r	1	0.5976	T	R	T	R	b	r	1	2000	1	6	1
1	05-Feb-2016	  11	Red	i	1	0.7326	I	U	nnI	nnU	brr	rbb	3	650	1	6	1
1	05-Feb-2016	  12	Red	d	1	0.9213	D	O	nnD	nnO	bbr	rrb	3	650	1	6	1
1	05-Feb-2016	  13	Red	w	0	0.8613	H	N	nH	nN	br	rb	2	2000	1	6	1
1	05-Feb-2016	  14	Red	h	0	0.8724	N	H	N	H	r	b	1	650	1	6	1
1	05-Feb-2016	  15	Red	m	1	0.7746	A	M	nA	nM	bb	rr	2	650	1	6	1
1	05-Feb-2016	  16	Red	z	1	0.8799	Z	O	nnnZ	nnnO	rrbr	bbrb	4	650	1	6	1
1	05-Feb-2016	  17	Red	w	1	0.7265	W	V	nW	nV	br	rb	2	650	1	6	1
1	05-Feb-2016	  18	Red	a	1	0.7909	A	C	A	C	r	b	1	650	1	6	1
1	05-Feb-2016	  19	Red	s	0	0.6260	Q	D	nnnQ	nnnD	rbbb	brrr	4	2000	1	6	1
1	05-Feb-2016	  20	Red	k	1	2.3537	K	U	nK	nU	br	rb	2	650	1	6	1
1	05-Feb-2016	  21	Red	q	1	0.8924	Z	Q	nnZ	nnQ	bbb	rrr	3	2000	1	6	1
1	05-Feb-2016	  22	Red	y	1	0.9146	H	Y	nnH	nnY	rrb	bbr	3	650	1	6	1
1	05-Feb-2016	  23	Red	p	1	0.7496	V	P	V	P	b	r	1	2000	1	6	1
1	05-Feb-2016	  24	Red	c	1	0.4754	C	X	nnnC	nnnX	rbbr	brrb	4	2000	1	6	1
1	05-Feb-2016	  25	Red	g	1	0.8057	G	I	G	I	r	b	1	2000	1	6	1
1	05-Feb-2016	  26	Red	o	1	1.7632	O	H	O	H	r	b	1	650	1	6	1
1	05-Feb-2016	  27	Red	u	1	0.8598	T	U	nnnT	nnnU	rrrb	bbbr	4	650	1	6	1
1	05-Feb-2016	  28	Red	f	1	0.6607	F	V	nnF	nnV	bbr	rrb	3	2000	1	6	1
1	05-Feb-2016	  29	Red	h	1	0.7408	M	H	nnnM	nnnH	brrb	rbbr	4	650	1	6	1
1	05-Feb-2016	  30	Red	r	1	1.3023	R	T	nR	nT	br	rb	2	650	1	6	1
1	05-Feb-2016	  31	Red	t	1	1.1549	U	T	U	T	b	r	1	650	1	6	1
1	05-Feb-2016	  32	Red	x	1	0.7040	X	Q	nnX	nnQ	rbr	brb	3	650	1	6	1
1	05-Feb-2016	   1	Blue	x	1	0.5971	X	I	nX	nI	rb	br	2	2000	1	6	1
1	05-Feb-2016	   2	Blue	r	1	0.6875	R	K	nnR	nnK	bbb	rrr	3	2000	1	6	1
1	05-Feb-2016	   3	Blue	y	1	0.5830	Y	A	nnnY	nnnA	brbb	rbrr	4	2000	1	6	1
1	05-Feb-2016	   4	Blue	k	1	0.8460	K	A	nK	nA	rb	br	2	650	1	6	1
1	05-Feb-2016	   5	Blue	f	1	0.6967	W	F	nnnW	nnnF	bbrr	rrbb	4	2000	1	6	1
1	05-Feb-2016	   6	Blue	g	1	0.6761	T	G	nT	nG	rr	bb	2	2000	1	6	1
1	05-Feb-2016	   7	Blue	l	1	0.3634	V	L	nnV	nnL	brr	rbb	3	2000	1	6	1
1	05-Feb-2016	   8	Blue	h	1	0.7288	H	E	H	E	b	r	1	2000	1	6	1
1	05-Feb-2016	   9	Blue	w	0	0.8662	M	C	M	C	b	r	1	650	1	6	1
1	05-Feb-2016	  10	Blue	c	1	0.7227	C	M	nnnC	nnnM	bbrb	rrbr	4	650	1	6	1
1	05-Feb-2016	  11	Blue	r	1	0.7418	M	R	nM	nR	rr	bb	2	650	1	6	1
1	05-Feb-2016	  12	Blue	s	1	0.7022	R	S	R	S	r	b	1	2000	1	6	1
1	05-Feb-2016	  13	Blue	a	1	1.3775	O	A	O	A	r	b	1	650	1	6	1
1	05-Feb-2016	  14	Blue	k	1	0.4551	K	C	nnK	nnC	rbb	brr	3	2000	1	6	1
1	05-Feb-2016	  15	Blue	v	1	0.9230	M	V	nnM	nnV	rbr	brb	3	650	1	6	1
1	05-Feb-2016	  16	Blue	g	1	0.9028	G	A	G	A	b	r	1	650	1	6	1
1	05-Feb-2016	  17	Blue	m	1	0.7324	G	M	nnnG	nnnM	bbrr	rrbb	4	650	1	6	1
1	05-Feb-2016	  18	Blue	l	1	0.8011	U	L	nnU	nnL	rbr	brb	3	650	1	6	1
1	05-Feb-2016	  19	Blue	e	1	0.4292	E	F	nnnE	nnnF	bbrb	rrbr	4	2000	1	6	1
1	05-Feb-2016	  20	Blue	l	1	0.2794	J	L	nnnJ	nnnL	rbbr	brrb	4	2000	1	6	1
1	05-Feb-2016	  21	Blue	t	1	0.4638	U	T	nU	nT	rr	bb	2	2000	1	6	1
1	05-Feb-2016	  22	Blue	m	1	0.7870	H	M	H	M	r	b	1	2000	1	6	1
1	05-Feb-2016	  23	Blue	p	1	0.7245	D	P	nnD	nnP	rbr	brb	3	650	1	6	1
1	05-Feb-2016	  24	Blue	x	1	0.6729	O	X	nnO	nnX	bbr	rrb	3	2000	1	6	1
1	05-Feb-2016	  25	Blue	r	1	0.4459	R	W	nR	nW	bb	rr	2	2000	1	6	1
1	05-Feb-2016	  26	Blue	h	1	1.0202	H	G	nnnH	nnnG	brbb	rbrr	4	650	1	6	1
1	05-Feb-2016	  27	Blue	i	1	0.9967	I	X	I	X	b	r	1	650	1	6	1
1	05-Feb-2016	  28	Blue	g	1	0.8681	W	G	nW	nG	rr	bb	2	650	1	6	1
1	05-Feb-2016	  29	Blue	t	1	0.9580	T	M	nnnT	nnnM	rrrb	bbbr	4	650	1	6	1
1	05-Feb-2016	  30	Blue	o	1	0.7605	N	O	nnN	nnO	brr	rbb	3	650	1	6	1
1	05-Feb-2016	  31	Blue	c	1	0.8008	W	C	nW	nC	br	rb	2	650	1	6	1
1	05-Feb-2016	  32	Blue	w	1	1.0245	X	W	X	W	r	b	1	2000	1	6	1
21	04-Mar-2016	   1	Blue	t	1	1.0246	R	T	nnnR	nnnT	rbbr	brrb	4	2000	1	6	1
21	04-Mar-2016	   2	Blue	l	1	1.0395	I	L	I	L	r	b	1	2000	1	6	1
21	04-Mar-2016	   3	Blue	s	1	0.9195	Y	S	nY	nS	rr	bb	2	2000	1	6	1
21	04-Mar-2016	   4	Blue	a	1	1.1543	A	D	nA	nD	bb	rr	2	650	1	6	1
21	04-Mar-2016	   5	Blue	n	1	0.9567	P	N	P	N	r	b	1	2000	1	6	1
21	04-Mar-2016	   6	Blue	e	1	0.9141	L	E	nnL	nnE	brr	rbb	3	2000	1	6	1
21	04-Mar-2016	   7	Blue	e	1	1.0487	E	V	nnnE	nnnV	rrrb	bbbr	4	650	1	6	1
21	04-Mar-2016	   8	Blue	j	1	1.0241	J	I	nnJ	nnI	bbb	rrr	3	650	1	6	1
21	04-Mar-2016	   9	Blue	d	1	1.0075	D	Q	D	Q	b	r	1	650	1	6	1
21	04-Mar-2016	  10	Blue	r	0	1.4885	X	Q	nX	nQ	rb	br	2	650	1	6	1
21	04-Mar-2016	  11	Blue	r	1	1.1465	R	L	nnR	nnL	brb	rbr	3	2000	1	6	1
21	04-Mar-2016	  12	Blue	l	1	1.1326	C	L	nC	nL	rr	bb	2	650	1	6	1
21	04-Mar-2016	  13	Blue	y	1	1.0822	Y	B	nY	nB	bb	rr	2	650	1	6	1
21	04-Mar-2016	  14	Blue	l	1	1.1758	L	C	nnL	nnC	rrb	bbr	3	650	1	6	1
21	04-Mar-2016	  15	Blue	a	1	0.8618	M	A	nnM	nnA	bbr	rrb	3	2000	1	6	1
21	04-Mar-2016	  16	Blue	a	1	1.0614	A	W	nnnA	nnnW	brrb	rbbr	4	650	1	6	1
21	04-Mar-2016	  17	Blue	f	1	0.8844	F	Y	F	Y	b	r	1	650	1	6	1
21	04-Mar-2016	  18	Blue	o	0	1.4081	O	X	O	X	r	b	1	650	1	6	1
21	04-Mar-2016	  19	Blue	p	1	1.0014	U	P	U	P	r	b	1	2000	1	6	1
21	04-Mar-2016	  20	Blue	i	1	1.2137	I	U	nnnI	nnnU	brbb	rbrr	4	2000	1	6	1
21	04-Mar-2016	  21	Blue	d	1	1.0665	L	D	nnL	nnD	rrr	bbb	3	2000	1	6	1
21	04-Mar-2016	  22	Blue	o	1	1.1866	Z	O	nnZ	nnO	rrr	bbb	3	650	1	6	1
21	04-Mar-2016	  23	Blue	a	1	0.9074	L	A	L	A	r	b	1	2000	1	6	1
21	04-Mar-2016	  24	Blue	l	1	0.9677	L	Q	nL	nQ	bb	rr	2	2000	1	6	1
21	04-Mar-2016	  25	Blue	w	1	1.0629	D	W	nnnD	nnnW	brbr	rbrb	4	2000	1	6	1
21	04-Mar-2016	  26	Blue	r	0	0.8091	Y	G	nnnY	nnnG	rrrr	bbbb	4	2000	1	6	1
21	04-Mar-2016	  27	Blue	a	1	1.0825	A	P	nA	nP	bb	rr	2	2000	1	6	1
21	04-Mar-2016	  28	Blue	r	0	0.9058	O	Q	nO	nQ	rr	bb	2	2000	1	6	1
21	04-Mar-2016	  29	Blue	q	1	1.2067	Q	D	nnnQ	nnnD	rrrb	bbbr	4	650	1	6	1
21	04-Mar-2016	  30	Blue	b	0	0.8596	E	N	nnnE	nnnN	brrb	rbbr	4	650	1	6	1
21	04-Mar-2016	  31	Blue	i	1	0.9032	I	O	I	O	b	r	1	650	1	6	1
21	04-Mar-2016	  32	Blue	y	1	0.9964	J	Y	nnJ	nnY	rrr	bbb	3	650	1	6	1
21	04-Mar-2016	   1	Red	r	0	1.0866	X	L	nnX	nnL	rrr	bbb	3	650	1	6	1
21	04-Mar-2016	   2	Red	x	1	1.2150	X	F	nnX	nnF	rbr	brb	3	2000	1	6	1
21	04-Mar-2016	   3	Red	b	1	1.0253	B	N	nnB	nnN	rrr	bbb	3	650	1	6	1
21	04-Mar-2016	   4	Red	i	1	1.0127	I	Q	nnI	nnQ	rrr	bbb	3	2000	1	6	1
21	04-Mar-2016	   5	Red	g	1	1.0702	G	K	nnnG	nnnK	rrbr	bbrb	4	650	1	6	1
21	04-Mar-2016	   6	Red	o	1	1.1606	V	O	nnnV	nnnO	bbrb	rrbr	4	650	1	6	1
21	04-Mar-2016	   7	Red	e	1	1.0375	E	Y	nnE	nnY	bbr	rrb	3	2000	1	6	1
21	04-Mar-2016	   8	Red	o	1	1.0843	O	R	nO	nR	br	rb	2	650	1	6	1
21	04-Mar-2016	   9	Red	i	1	0.9553	L	I	nnL	nnI	bbb	rrr	3	650	1	6	1
21	04-Mar-2016	  10	Red	a	1	0.8934	A	U	A	U	r	b	1	650	1	6	1
21	04-Mar-2016	  11	Red	b	0	0.9214	K	O	nK	nO	br	rb	2	2000	1	6	1
21	04-Mar-2016	  12	Red	p	1	1.0217	H	P	nnH	nnP	rbb	brr	3	650	1	6	1
21	04-Mar-2016	  13	Red	c	1	0.9223	D	C	nnnD	nnnC	rrrb	bbbr	4	2000	1	6	1
21	04-Mar-2016	  14	Red	s	1	1.0451	Z	S	nZ	nS	rb	br	2	650	1	6	1
21	04-Mar-2016	  15	Red	q	0	2.0846	H	W	nH	nW	bb	rr	2	650	1	6	1
21	04-Mar-2016	  16	Red	j	1	1.0700	K	J	K	J	b	r	1	650	1	6	1
21	04-Mar-2016	  17	Red	w	0	1.1849	H	B	nnnH	nnnB	rrrb	bbbr	4	2000	1	6	1
21	04-Mar-2016	  18	Red	l	1	0.9489	L	B	nL	nB	rr	bb	2	2000	1	6	1
21	04-Mar-2016	  19	Red	f	1	0.7039	F	I	F	I	r	b	1	2000	1	6	1
21	04-Mar-2016	  20	Red	z	1	0.9745	Z	D	nnnZ	nnnD	bbrr	rrbb	4	2000	1	6	1
21	04-Mar-2016	  21	Red	y	0	2.2802	Z	H	Z	H	b	r	1	2000	1	6	1
21	04-Mar-2016	  22	Red	d	1	1.1407	D	A	nD	nA	rr	bb	2	2000	1	6	1
21	04-Mar-2016	  23	Red	u	1	1.3145	C	U	nnnC	nnnU	brrb	rbbr	4	650	1	6	1
21	04-Mar-2016	  24	Red	n	1	0.9361	N	Z	N	Z	r	b	1	2000	1	6	1
21	04-Mar-2016	  25	Red	c	0	1.5469	V	S	nV	nS	rb	br	2	650	1	6	1
21	04-Mar-2016	  26	Red	b	0	1.1290	Q	B	Q	B	r	b	1	650	1	6	1
21	04-Mar-2016	  27	Red	k	1	1.0483	K	Y	nnnK	nnnY	rrbr	bbrb	4	2000	1	6	1
21	04-Mar-2016	  28	Red	f	1	1.0716	F	R	F	R	r	b	1	2000	1	6	1
21	04-Mar-2016	  29	Red	k	0	1.3263	K	W	nK	nW	bb	rr	2	2000	1	6	1
21	04-Mar-2016	  30	Red	z	1	1.2295	F	Z	nnF	nnZ	brb	rbr	3	2000	1	6	1
21	04-Mar-2016	  31	Red	a	1	1.1187	A	M	A	M	r	b	1	650	1	6	1
21	04-Mar-2016	  32	Red	a	1	1.1014	A	B	nnnA	nnnB	brrr	rbbb	4	650	1	6	1
21	04-Mar-2016	   1	Blue	f	0	1.1781	F	X	F	X	r	b	1	2000	1	6	1
21	04-Mar-2016	   2	Blue	x	1	9.3161	X	Q	X	Q	b	r	1	2000	1	6	1
21	04-Mar-2016	   3	Blue	f	0	1.7538	O	F	O	F	b	r	1	2000	1	6	1
21	04-Mar-2016	   4	Blue	l	1	1.0486	Q	L	nQ	nL	br	rb	2	650	1	6	1
21	04-Mar-2016	   5	Blue	j	1	0.9935	P	J	nnP	nnJ	rbr	brb	3	2000	1	6	1
21	04-Mar-2016	   6	Blue	w	1	1.1364	W	Q	W	Q	b	r	1	650	1	6	1
21	04-Mar-2016	   7	Blue	b	0	0.9604	K	W	nnK	nnW	rbr	brb	3	2000	1	6	1
21	04-Mar-2016	   8	Blue	l	1	1.2115	L	T	nL	nT	rb	br	2	2000	1	6	1
21	04-Mar-2016	   9	Blue	j	0	1.1256	J	U	nnJ	nnU	brr	rbb	3	650	1	6	1
21	04-Mar-2016	  10	Blue	p	1	1.1530	P	I	nP	nI	bb	rr	2	650	1	6	1
21	04-Mar-2016	  11	Blue	a	1	0.9155	A	W	A	W	b	r	1	650	1	6	1
21	04-Mar-2016	  12	Blue	o	1	1.0567	O	F	nnO	nnF	rbb	brr	3	650	1	6	1
21	04-Mar-2016	  13	Blue	c	1	1.0008	Z	C	nZ	nC	br	rb	2	2000	1	6	1
21	04-Mar-2016	  14	Blue	y	1	0.9282	Y	C	Y	C	b	r	1	2000	1	6	1
21	04-Mar-2016	  15	Blue	t	1	1.0930	T	C	nT	nC	bb	rr	2	2000	1	6	1
21	04-Mar-2016	  16	Blue	b	1	1.0845	J	B	nnJ	nnB	brr	rbb	3	2000	1	6	1
21	04-Mar-2016	  17	Blue	t	0	2.6904	R	L	R	L	r	b	1	650	1	6	1
21	04-Mar-2016	  18	Blue	n	1	0.9221	N	G	nnN	nnG	bbb	rrr	3	2000	1	6	1
21	04-Mar-2016	  19	Blue	r	1	1.0570	R	M	nnnR	nnnM	rrrb	bbbr	4	2000	1	6	1
21	04-Mar-2016	  20	Blue	z	1	0.9459	Z	F	nnnZ	nnnF	bbrb	rrbr	4	650	1	6	1
21	04-Mar-2016	  21	Blue	i	1	1.0377	I	D	nI	nD	bb	rr	2	650	1	6	1
21	04-Mar-2016	  22	Blue	w	0	0.9268	R	Q	nnnR	nnnQ	rbrr	brbb	4	650	1	6	1
21	04-Mar-2016	  23	Blue	i	1	0.8139	O	I	nnnO	nnnI	brbr	rbrb	4	2000	1	6	1
21	04-Mar-2016	  24	Blue	r	1	1.5209	R	Z	nnnR	nnnZ	rbbb	brrr	4	650	1	6	1
21	04-Mar-2016	  25	Blue	n	1	0.8030	N	K	nnnN	nnnK	rrrb	bbbr	4	2000	1	6	1
21	04-Mar-2016	  26	Blue	l	1	1.3881	L	S	nL	nS	rb	br	2	2000	1	6	1
21	04-Mar-2016	  27	Blue	o	0	1.2491	Q	B	nnQ	nnB	rbb	brr	3	650	1	6	1
21	04-Mar-2016	  28	Blue	i	1	1.3871	I	C	nnnI	nnnC	rrrb	bbbr	4	650	1	6	1
21	04-Mar-2016	  29	Blue	a	1	0.3547	A	W	nnnA	nnnW	rbbb	brrr	4	2000	1	6	1
21	04-Mar-2016	  30	Blue	l	1	1.0569	R	L	R	L	r	b	1	650	1	6	1
21	04-Mar-2016	  31	Blue	l	1	1.4157	L	B	nL	nB	bb	rr	2	650	1	6	1
21	04-Mar-2016	  32	Blue	e	1	0.9873	S	E	nnS	nnE	bbr	rrb	3	650	1	6	1
21	04-Mar-2016	   1	Red	l	1	0.9878	T	L	nT	nL	rb	br	2	2000	1	6	1
21	04-Mar-2016	   2	Red	p	1	1.2800	P	B	nnnP	nnnB	brbr	rbrb	4	650	1	6	1
21	04-Mar-2016	   3	Red	e	1	0.9910	E	V	E	V	r	b	1	2000	1	6	1
21	04-Mar-2016	   4	Red	q	0	1.3934	I	P	nnI	nnP	rrb	bbr	3	650	1	6	1
21	04-Mar-2016	   5	Red	y	1	1.1659	Y	H	nnnY	nnnH	bbrr	rrbb	4	650	1	6	1
21	04-Mar-2016	   6	Red	r	0	1.9625	A	F	nA	nF	rr	bb	2	2000	1	6	1
21	04-Mar-2016	   7	Red	e	1	0.9529	E	S	nE	nS	rr	bb	2	650	1	6	1
21	04-Mar-2016	   8	Red	y	0	1.0826	V	Q	V	Q	r	b	1	650	1	6	1
21	04-Mar-2016	   9	Red	j	1	0.9480	C	J	nnC	nnJ	rrb	bbr	3	2000	1	6	1
21	04-Mar-2016	  10	Red	m	1	0.5631	J	M	nnnJ	nnnM	bbrb	rrbr	4	2000	1	6	1
21	04-Mar-2016	  11	Red	j	0	1.7871	C	Q	nC	nQ	br	rb	2	650	1	6	1
21	04-Mar-2016	  12	Red	k	1	0.9760	K	D	nnK	nnD	rrr	bbb	3	650	1	6	1
21	04-Mar-2016	  13	Red	d	1	0.9835	D	Q	nnnD	nnnQ	rrbr	bbrb	4	2000	1	6	1
21	04-Mar-2016	  14	Red	e	1	1.1916	Q	E	Q	E	b	r	1	650	1	6	1
21	04-Mar-2016	  15	Red	s	1	0.9865	E	S	nnE	nnS	rrb	bbr	3	650	1	6	1
21	04-Mar-2016	  16	Red	s	0	1.9163	O	R	nO	nR	rb	br	2	2000	1	6	1
21	04-Mar-2016	  17	Red	i	1	1.0316	I	K	nnI	nnK	bbr	rrb	3	2000	1	6	1
21	04-Mar-2016	  18	Red	y	1	0.9679	Y	I	nY	nI	rr	bb	2	650	1	6	1
21	04-Mar-2016	  19	Red	n	0	1.1444	B	A	B	A	r	b	1	650	1	6	1
21	04-Mar-2016	  20	Red	y	1	1.0600	Y	T	Y	T	r	b	1	2000	1	6	1
21	04-Mar-2016	  21	Red	z	1	0.8613	B	Z	nnB	nnZ	rrb	bbr	3	2000	1	6	1
21	04-Mar-2016	  22	Red	q	1	1.0184	F	Q	F	Q	b	r	1	2000	1	6	1
21	04-Mar-2016	  23	Red	y	1	0.9345	R	Y	nnnR	nnnY	bbbb	rrrr	4	2000	1	6	1
21	04-Mar-2016	  24	Red	j	1	1.0824	F	J	nF	nJ	bb	rr	2	650	1	6	1
21	04-Mar-2016	  25	Red	n	1	1.1517	Q	N	Q	N	b	r	1	2000	1	6	1
21	04-Mar-2016	  26	Red	r	0	1.0529	U	Y	nnnU	nnnY	bbbr	rrrb	4	650	1	6	1
21	04-Mar-2016	  27	Red	k	1	1.1838	K	I	nnnK	nnnI	rbrr	brbb	4	650	1	6	1
21	04-Mar-2016	  28	Red	v	1	1.0661	M	V	nM	nV	bb	rr	2	2000	1	6	1
21	04-Mar-2016	  29	Red	l	1	0.9012	L	M	nnnL	nnnM	rrrr	bbbb	4	2000	1	6	1
21	04-Mar-2016	  30	Red	s	1	1.1864	S	J	nnS	nnJ	rbr	brb	3	650	1	6	1
21	04-Mar-2016	  31	Red	e	1	1.6296	E	X	E	X	r	b	1	650	1	6	1
21	04-Mar-2016	  32	Red	s	1	0.9133	R	S	nnR	nnS	rbb	brr	3	2000	1	6	1
21	04-Mar-2016	   1	Blue	r	0	1.2997	U	W	UXKJ	WQLD	b	r	1	650	1	6	0
21	04-Mar-2016	   2	Blue	m	0	1.2661	H	J	LHEG	MJSP	rr	bb	2	2000	1	6	0
21	04-Mar-2016	   3	Blue	d	1	0.9614	Q	D	QLPX	DRWZ	r	b	1	2000	1	6	0
21	04-Mar-2016	   4	Blue	m	1	0.8662	Z	M	ZWNH	MPTV	r	b	1	2000	1	6	0
21	04-Mar-2016	   5	Blue	y	0	1.0163	Y	N	YLVZ	NOUC	r	b	1	2000	1	6	0
21	04-Mar-2016	   6	Blue	z	0	1.2055	H	J	WUZH	ICKJ	brbb	rbrr	4	2000	1	6	0
21	04-Mar-2016	   7	Blue	y	0	1.0588	K	E	DRUK	YLIE	rbbb	brrr	4	2000	1	6	0
21	04-Mar-2016	   8	Blue	j	0	1.0215	U	O	PYNU	JEMO	rrrr	bbbb	4	2000	1	6	0
21	04-Mar-2016	   9	Blue	i	0	1.2221	E	K	SEHQ	IKYJ	rb	br	2	2000	1	6	0
21	04-Mar-2016	  10	Blue	j	1	1.4559	N	J	HWNZ	SQJT	rbr	brb	3	650	1	6	0
21	04-Mar-2016	  11	Blue	j	0	1.8153	R	H	RTLF	HBQM	b	r	1	650	1	6	0
21	04-Mar-2016	  12	Blue	h	0	1.4289	V	U	ZVFT	SUAK	rr	bb	2	650	1	6	0
21	04-Mar-2016	  13	Blue	t	1	1.0095	T	Q	DHTZ	EBQJ	rrb	bbr	3	2000	1	6	0
21	04-Mar-2016	  14	Blue	q	0	1.4416	N	D	WJNO	XSDI	brb	rbr	3	650	1	6	0
21	04-Mar-2016	  15	Blue	m	0	1.2107	M	Z	TMUI	KZDB	br	rb	2	650	1	6	0
21	04-Mar-2016	  16	Blue	s	0	1.5730	P	W	PSIK	WHMF	b	r	1	2000	1	6	0
21	04-Mar-2016	  17	Blue	p	1	1.2359	P	I	ZBPC	DQIJ	brb	rbr	3	2000	1	6	0
21	04-Mar-2016	  18	Blue	t	1	1.0703	T	G	RBTE	QDGJ	rrb	bbr	3	2000	1	6	0
21	04-Mar-2016	  19	Blue	r	1	1.1442	U	R	NAUF	JBRE	brr	rbb	3	2000	1	6	0
21	04-Mar-2016	  20	Blue	l	0	1.0602	Q	I	LEQZ	CDIU	bbb	rrr	3	650	1	6	0
21	04-Mar-2016	  21	Blue	w	0	1.1329	H	D	EHZR	BDUC	br	rb	2	2000	1	6	0
21	04-Mar-2016	  22	Blue	y	0	1.0727	H	Q	YHWO	TQPE	bb	rr	2	650	1	6	0
21	04-Mar-2016	  23	Blue	t	0	1.1697	H	K	TUPH	MJOK	brrr	rbbb	4	650	1	6	0
21	04-Mar-2016	  24	Blue	q	0	1.3333	Y	B	DGYN	MEBU	rrr	bbb	3	650	1	6	0
21	04-Mar-2016	  25	Blue	z	0	1.0537	Y	K	GMZY	JFSK	bbbr	rrrb	4	650	1	6	0
21	04-Mar-2016	  26	Blue	a	1	1.2508	E	A	EKMQ	ATFZ	r	b	1	650	1	6	0
21	04-Mar-2016	  27	Blue	w	0	1.7909	X	B	FKAX	LYJB	bbbr	rrrb	4	650	1	6	0
21	04-Mar-2016	  28	Blue	q	0	1.4653	U	M	ULSC	MFQW	r	b	1	650	1	6	0
21	04-Mar-2016	  29	Blue	w	0	1.2027	I	T	OICY	XTKW	rb	br	2	650	1	6	0
21	04-Mar-2016	  30	Blue	z	0	1.2813	D	U	ZXBD	QTWU	rbbr	brrb	4	2000	1	6	0
21	04-Mar-2016	  31	Blue	o	0	1.1854	L	E	BLQA	OEUM	rr	bb	2	2000	1	6	0
21	04-Mar-2016	  32	Blue	i	0	1.2313	S	U	XDIS	TLAU	rbbb	brrr	4	650	1	6	0
21	04-Mar-2016	   1	Red	c	0	0.9407	S	Y	QCNS	JZMY	rrbb	bbrr	4	650	1	6	0
21	04-Mar-2016	   2	Red	i	1	0.9836	B	I	JBAE	VIRN	rb	br	2	2000	1	6	0
21	04-Mar-2016	   3	Red	y	0	1.0268	X	J	HVXE	AYJN	bbr	rrb	3	650	1	6	0
21	04-Mar-2016	   4	Red	k	0	1.1551	N	T	KNZY	QTHO	rr	bb	2	2000	1	6	0
21	04-Mar-2016	   5	Red	z	0	0.9290	Y	S	UNPY	ZOMS	bbrr	rrbb	4	650	1	6	0
21	04-Mar-2016	   6	Red	j	0	1.2517	H	X	JHGK	LXIS	rb	br	2	650	1	6	0
21	04-Mar-2016	   7	Red	n	1	1.5948	Y	N	YQDW	NPGJ	b	r	1	650	1	6	0
21	04-Mar-2016	   8	Red	u	1	1.2173	U	S	XKUE	ZRSY	brr	rbb	3	650	1	6	0
21	04-Mar-2016	   9	Red	u	0	1.5846	R	P	RAZV	PUKQ	b	r	1	650	1	6	0
21	04-Mar-2016	  10	Red	z	0	1.3558	U	K	UQEV	KYOD	b	r	1	2000	1	6	0
21	04-Mar-2016	  11	Red	z	0	1.5365	M	K	ZMSF	LKCH	rr	bb	2	650	1	6	0
21	04-Mar-2016	  12	Red	n	0	1.3213	C	Q	JSZC	NMTQ	brrb	rbbr	4	650	1	6	0
21	04-Mar-2016	  13	Red	j	0	1.1815	P	S	ZPXB	JSEM	bb	rr	2	650	1	6	0
21	04-Mar-2016	  14	Red	n	0	1.4314	D	R	DTZM	RNGU	b	r	1	2000	1	6	0
21	04-Mar-2016	  15	Red	j	0	1.2210	D	K	QLDH	JXKN	bbb	rrr	3	2000	1	6	0
21	04-Mar-2016	  16	Red	t	1	1.2185	C	T	SKLC	YJDT	brbb	rbrr	4	2000	1	6	0
21	04-Mar-2016	  17	Red	s	0	1.1150	D	E	SDAK	GEUR	rb	br	2	2000	1	6	0
21	04-Mar-2016	  18	Red	d	0	1.2411	W	A	DKWL	XVAY	rbr	brb	3	650	1	6	0
21	04-Mar-2016	  19	Red	s	1	1.3052	M	S	MPYB	SRIQ	b	r	1	650	1	6	0
21	04-Mar-2016	  20	Red	o	0	1.1604	Y	H	CWYP	OQHB	bbb	rrr	3	650	1	6	0
21	04-Mar-2016	  21	Red	e	0	2.0596	I	X	IEGJ	XKOP	b	r	1	2000	1	6	0
21	04-Mar-2016	  22	Red	i	0	1.2405	U	T	AMUN	KITH	bbb	rrr	3	2000	1	6	0
21	04-Mar-2016	  23	Red	p	1	1.5524	P	A	PIOJ	AXMC	r	b	1	2000	1	6	0
21	04-Mar-2016	  24	Red	i	0	1.0731	Q	A	SIQL	CFAG	rrb	bbr	3	2000	1	6	0
21	04-Mar-2016	  25	Red	e	0	1.0790	Q	A	XQPW	IAOF	br	rb	2	650	1	6	0
21	04-Mar-2016	  26	Red	c	0	1.1446	O	J	KHCO	GRDJ	rbrb	brbr	4	2000	1	6	0
21	04-Mar-2016	  27	Red	l	1	1.0747	L	X	LVDW	XPKZ	r	b	1	650	1	6	0
21	04-Mar-2016	  28	Red	r	1	1.0833	R	P	ORKF	XPLA	br	rb	2	2000	1	6	0
21	04-Mar-2016	  29	Red	r	0	1.5890	E	X	TMWE	KPNX	brbb	rbrr	4	2000	1	6	0
21	04-Mar-2016	  30	Red	l	0	1.2698	I	M	VWLI	GYTM	rrbb	bbrr	4	2000	1	6	0
21	04-Mar-2016	  31	Red	b	0	1.0304	G	O	CLGB	TQOX	rbr	brb	3	2000	1	6	0
21	04-Mar-2016	  32	Red	s	0	1.1206	O	X	IHMO	SDCX	brrb	rbbr	4	650	1	6	0
21	04-Mar-2016	   1	Blue	b	1	1.1019	B	K	BGWJ	KANZ	b	r	1	650	1	6	0
21	04-Mar-2016	   2	Blue	e	1	1.0591	E	C	BEQK	WCHY	rb	br	2	2000	1	6	0
21	04-Mar-2016	   3	Blue	b	0	1.1650	E	L	WIME	GRKL	rbbr	brrb	4	650	1	6	0
21	04-Mar-2016	   4	Blue	d	1	1.0036	D	V	NKID	BOHV	rrrb	bbbr	4	650	1	6	0
21	04-Mar-2016	   5	Blue	p	0	1.3156	X	T	PXUW	KTBN	bb	rr	2	2000	1	6	0
21	04-Mar-2016	   6	Blue	l	0	0.9979	Y	C	MBHY	IFLC	brrb	rbbr	4	2000	1	6	0
21	04-Mar-2016	   7	Blue	w	0	1.5501	J	Z	OJXR	KZVH	br	rb	2	650	1	6	0
21	04-Mar-2016	   8	Blue	p	1	1.5013	P	H	YPDC	EHFA	rb	br	2	650	1	6	0
21	04-Mar-2016	   9	Blue	j	0	0.9347	H	G	JCBH	FOTG	brbr	rbrb	4	650	1	6	0
21	04-Mar-2016	  10	Blue	r	0	1.7206	V	G	VBAP	GWXU	r	b	1	650	1	6	0
21	04-Mar-2016	  11	Blue	b	0	1.5769	Y	C	ZYQT	XCSU	rb	br	2	650	1	6	0
21	04-Mar-2016	  12	Blue	s	0	1.2068	P	G	QFPI	SLGE	rrb	bbr	3	2000	1	6	0
21	04-Mar-2016	  13	Blue	j	0	1.2590	U	A	WJUR	NKAP	bbr	rrb	3	650	1	6	0
21	04-Mar-2016	  14	Blue	r	0	1.4674	D	Q	RBDS	WVQF	brr	rbb	3	650	1	6	0
21	04-Mar-2016	  15	Blue	l	0	1.1355	N	B	RUHN	LXYB	rrrb	bbbr	4	2000	1	6	0
21	04-Mar-2016	  16	Blue	i	0	1.1750	K	N	FPKR	OINT	brr	rbb	3	2000	1	6	0
21	04-Mar-2016	  17	Blue	w	0	1.6881	X	L	XBUP	LZER	r	b	1	2000	1	6	0
21	04-Mar-2016	  18	Blue	p	0	1.1384	G	T	JYGC	SPTO	rrb	bbr	3	650	1	6	0
21	04-Mar-2016	  19	Blue	v	0	1.2969	N	U	BAVN	LQEU	brbr	rbrb	4	650	1	6	0
21	04-Mar-2016	  20	Blue	r	1	1.4064	G	R	GTOH	RSIM	r	b	1	650	1	6	0
21	04-Mar-2016	  21	Blue	e	1	0.9913	X	E	XPGM	ENWS	r	b	1	2000	1	6	0
21	04-Mar-2016	  22	Blue	f	1	1.1442	P	F	PBHN	FAJS	r	b	1	2000	1	6	0
21	04-Mar-2016	  23	Blue	t	0	1.1420	M	R	TYMF	AVRB	bbb	rrr	3	650	1	6	0
21	04-Mar-2016	  24	Blue	i	1	1.3450	I	Q	IESK	QAGL	b	r	1	650	1	6	0
21	04-Mar-2016	  25	Blue	y	1	1.3200	Y	U	QGYR	JLUI	brb	rbr	3	2000	1	6	0
21	04-Mar-2016	  26	Blue	k	0	1.0794	Q	S	GKQN	RPSO	rbb	brr	3	2000	1	6	0
21	04-Mar-2016	  27	Blue	h	0	1.2466	N	E	HNSV	KECG	br	rb	2	2000	1	6	0
21	04-Mar-2016	  28	Blue	i	0	1.4070	I	K	HIMY	OKEC	br	rb	2	2000	1	6	0
21	04-Mar-2016	  29	Blue	e	0	1.0932	Q	F	SKUQ	RCEF	brrb	rbbr	4	2000	1	6	0
21	04-Mar-2016	  30	Blue	o	1	1.1390	O	F	OLVC	FKUG	b	r	1	2000	1	6	0
21	04-Mar-2016	  31	Blue	j	1	1.1268	J	H	CJUL	THIZ	bb	rr	2	650	1	6	0
21	04-Mar-2016	  32	Blue	s	0	1.1198	M	C	NKEM	SJXC	rrbr	bbrb	4	2000	1	6	0
21	04-Mar-2016	   1	Red	z	0	1.2506	H	W	AHNL	MWEG	rr	bb	2	2000	1	6	0
21	04-Mar-2016	   2	Red	c	1	1.2653	Y	C	WYNI	KCVJ	rb	br	2	650	1	6	0
21	04-Mar-2016	   3	Red	i	0	1.1657	M	L	NIYM	XJPL	rrbr	bbrb	4	2000	1	6	0
21	04-Mar-2016	   4	Red	r	1	1.2187	R	S	TRPK	ASHJ	br	rb	2	2000	1	6	0
21	04-Mar-2016	   5	Red	d	0	0.9806	R	L	DNRG	VSLC	rbb	brr	3	650	1	6	0
21	04-Mar-2016	   6	Red	l	0	1.9334	L	T	LUDW	TCHM	b	r	1	2000	1	6	0
21	04-Mar-2016	   7	Red	r	0	1.2611	R	C	REUZ	CNXM	b	r	1	2000	1	6	0
21	04-Mar-2016	   8	Red	h	0	0.9518	P	N	HGXP	SURN	rbrb	brbr	4	2000	1	6	0
21	04-Mar-2016	   9	Red	c	0	1.2223	P	Q	CDPR	NVQZ	rbr	brb	3	2000	1	6	0
21	04-Mar-2016	  10	Red	w	1	1.9431	W	X	WVNC	XBYK	r	b	1	2000	1	6	0
21	04-Mar-2016	  11	Red	e	0	1.3191	H	Q	EFHW	UKQD	rrr	bbb	3	650	1	6	0
21	04-Mar-2016	  12	Red	u	0	1.3847	L	K	PXUL	QWSK	bbrr	rrbb	4	650	1	6	0
21	04-Mar-2016	  13	Red	i	0	1.0584	U	D	BUNX	IDOY	br	rb	2	650	1	6	0
21	04-Mar-2016	  14	Red	i	0	1.1718	T	Z	DEOT	IKXZ	brbr	rbrb	4	650	1	6	0
21	04-Mar-2016	  15	Red	w	0	1.2555	M	R	ZMDP	LRNA	rb	br	2	2000	1	6	0
21	04-Mar-2016	  16	Red	r	0	1.6377	K	B	KGCZ	BFSN	b	r	1	650	1	6	0
21	04-Mar-2016	  17	Red	p	0	1.2174	R	K	CSRY	MPKE	bbb	rrr	3	650	1	6	0
21	04-Mar-2016	  18	Red	q	0	1.3799	M	T	QMDA	CTEO	br	rb	2	2000	1	6	0
21	04-Mar-2016	  19	Red	g	1	1.3555	X	G	NBAX	DOTG	brbb	rbrr	4	2000	1	6	0
21	04-Mar-2016	  20	Red	j	1	1.3669	J	Q	JSZH	QTWN	r	b	1	650	1	6	0
21	04-Mar-2016	  21	Red	i	0	1.1904	U	P	BLZU	QIJP	bbbr	rrrb	4	650	1	6	0
21	04-Mar-2016	  22	Red	a	1	1.1225	A	G	HBAC	MQGX	rbr	brb	3	2000	1	6	0
21	04-Mar-2016	  23	Red	w	0	1.5752	B	Z	WBQN	TZDV	rb	br	2	650	1	6	0
21	04-Mar-2016	  24	Red	a	0	1.1121	Q	K	FVSQ	AIHK	brbr	rbrb	4	2000	1	6	0
21	04-Mar-2016	  25	Red	w	0	2.0284	V	Q	VECL	QNGB	r	b	1	650	1	6	0
21	04-Mar-2016	  26	Red	s	0	1.2190	Y	D	VIJY	UESD	brbb	rbrr	4	650	1	6	0
21	04-Mar-2016	  27	Red	r	0	1.6273	R	V	IRZP	JVQO	rb	br	2	650	1	6	0
21	04-Mar-2016	  28	Red	o	1	1.1929	E	O	PMEJ	ZGOQ	bbb	rrr	3	2000	1	6	0
21	04-Mar-2016	  29	Red	j	1	2.0508	K	J	KFDN	JGMU	b	r	1	650	1	6	0
21	04-Mar-2016	  30	Red	f	0	1.1288	N	W	FKNC	GMWE	rbb	brr	3	2000	1	6	0
21	04-Mar-2016	  31	Red	j	0	2.1578	T	Y	CXTB	JGYV	brr	rbb	3	650	1	6	0
21	04-Mar-2016	  32	Red	g	0	1.9818	X	W	XTZA	WUKO	r	b	1	2000	1	6	0
22	04-Mar-2016	   1	Red	y	0	0.4542	N	Y	FONW	UTYE	brr	rbb	3	2000	1	6	0
22	04-Mar-2016	   2	Red	d	1	0.8745	J	D	WJVO	LDBI	rb	br	2	2000	1	6	0
22	04-Mar-2016	   3	Red	o	0	0.7848	D	R	ZYBD	OFSR	brbb	rbrr	4	650	1	6	0
22	04-Mar-2016	   4	Red	t	0	0.6036	L	S	UVHL	BITS	bbbb	rrrr	4	650	1	6	0
22	04-Mar-2016	   5	Red	y	1	1.0826	Y	X	YQTB	XRCF	r	b	1	650	1	6	0
22	04-Mar-2016	   6	Red	v	0	1.0881	J	K	HJEQ	VKBL	br	rb	2	650	1	6	0
22	04-Mar-2016	   7	Red	v	0	0.5719	B	V	BTSK	VEID	r	b	1	650	1	6	0
22	04-Mar-2016	   8	Red	x	1	0.6323	H	X	JZDH	QYKX	bbbb	rrrr	4	2000	1	6	0
22	04-Mar-2016	   9	Red	m	0	1.0788	B	M	FBSO	PMWL	br	rb	2	2000	1	6	0
22	04-Mar-2016	  10	Red	k	1	0.7323	S	K	SXMN	KPDI	b	r	1	2000	1	6	0
22	04-Mar-2016	  11	Red	b	0	0.8582	I	B	YKLI	EDCB	rbrr	brbb	4	650	1	6	0
22	04-Mar-2016	  12	Red	g	1	0.8238	W	G	NWVP	XGOB	rb	br	2	650	1	6	0
22	04-Mar-2016	  13	Red	j	0	0.9263	R	J	ARVF	BJSM	br	rb	2	2000	1	6	0
22	04-Mar-2016	  14	Red	r	0	0.7209	I	R	IHMQ	RFKN	r	b	1	2000	1	6	0
22	04-Mar-2016	  15	Red	q	1	0.8313	W	Q	NGWY	ETQL	rbb	brr	3	2000	1	6	0
22	04-Mar-2016	  16	Red	d	1	0.8739	J	D	CSKJ	NOAD	rrrb	bbbr	4	2000	1	6	0
22	04-Mar-2016	  17	Red	c	0	0.7342	B	C	BGSY	CVKD	r	b	1	650	1	6	0
22	04-Mar-2016	  18	Red	p	0	1.2674	T	A	VKZT	LXPA	rbrb	brbr	4	650	1	6	0
22	04-Mar-2016	  19	Red	k	1	0.8016	Z	K	ZMWI	KHRJ	b	r	1	2000	1	6	0
22	04-Mar-2016	  20	Red	g	1	0.7010	C	G	MEVC	KBYG	brbb	rbrr	4	2000	1	6	0
22	04-Mar-2016	  21	Red	z	1	0.5868	S	Z	NSWH	DZRO	bb	rr	2	2000	1	6	0
22	04-Mar-2016	  22	Red	g	0	0.7533	Y	Q	XYJD	GQEI	rr	bb	2	650	1	6	0
22	04-Mar-2016	  23	Red	k	0	0.8275	R	E	XFRG	KZED	brr	rbb	3	650	1	6	0
22	04-Mar-2016	  24	Red	c	0	1.0997	B	F	ISBV	CYFU	rrr	bbb	3	650	1	6	0
22	04-Mar-2016	  25	Red	i	1	0.3008	O	I	MQOD	XHIY	rrb	bbr	3	2000	1	6	0
22	04-Mar-2016	  26	Red	l	0	0.7265	Z	Q	JWZA	LKQI	rbb	brr	3	650	1	6	0
22	04-Mar-2016	  27	Red	y	0	2.1036	U	Y	UKSM	YBQD	r	b	1	650	1	6	0
22	04-Mar-2016	  28	Red	e	0	0.9704	I	L	COID	EHLR	rrb	bbr	3	650	1	6	0
22	04-Mar-2016	  29	Red	a	0	0.3528	D	I	HQMD	ATWI	rbbb	brrr	4	2000	1	6	0
22	04-Mar-2016	  30	Red	t	1	1.0648	K	T	KBLC	TADF	b	r	1	2000	1	6	0
22	04-Mar-2016	  31	Red	g	1	0.7852	D	G	NKDF	CZGQ	rrb	bbr	3	2000	1	6	0
22	04-Mar-2016	  32	Red	i	0	0.9381	L	R	NLHC	IRJQ	rb	br	2	650	1	6	0
22	04-Mar-2016	   1	Blue	s	0	1.8288	R	G	SRHO	MGPZ	bb	rr	2	650	1	6	0
22	04-Mar-2016	   2	Blue	y	0	0.9917	Y	H	YDOP	HUWR	r	b	1	2000	1	6	0
22	04-Mar-2016	   3	Blue	r	0	0.3547	H	X	RJHP	AQXI	bbb	rrr	3	2000	1	6	0
22	04-Mar-2016	   4	Blue	f	1	0.7391	F	U	FVPY	ULSA	b	r	1	2000	1	6	0
22	04-Mar-2016	   5	Blue	b	0	0.9032	M	V	ELBM	KNAV	rbrb	brbr	4	2000	1	6	0
22	04-Mar-2016	   6	Blue	j	1	0.9155	J	K	JYEU	KBOM	b	r	1	650	1	6	0
22	04-Mar-2016	   7	Blue	i	0	0.8559	P	V	NPET	IVXB	rb	br	2	2000	1	6	0
22	04-Mar-2016	   8	Blue	h	1	0.7815	N	H	NCKM	HXGV	r	b	1	2000	1	6	0
22	04-Mar-2016	   9	Blue	e	1	0.3978	E	M	EYJU	MXBW	b	r	1	2000	1	6	0
22	04-Mar-2016	  10	Blue	u	0	0.7637	N	P	XNTB	UPEQ	rb	br	2	2000	1	6	0
22	04-Mar-2016	  11	Blue	t	1	0.5909	T	O	KDBT	ACXO	rbbb	brrr	4	650	1	6	0
22	04-Mar-2016	  12	Blue	z	0	1.6769	Y	Z	YSFW	ZBLO	b	r	1	650	1	6	0
22	04-Mar-2016	  13	Blue	x	1	0.8206	Y	X	YLUG	XQKM	r	b	1	650	1	6	0
22	04-Mar-2016	  14	Blue	f	0	0.6327	W	L	BACW	YKFL	bbrr	rrbb	4	2000	1	6	0
22	04-Mar-2016	  15	Blue	g	0	0.8885	L	T	VUEL	SGRT	rrrr	bbbb	4	650	1	6	0
22	04-Mar-2016	  16	Blue	c	1	0.7506	C	B	ZVCQ	TDBH	rrb	bbr	3	650	1	6	0
22	04-Mar-2016	  17	Blue	b	1	0.6783	B	C	BVPU	CYXQ	b	r	1	650	1	6	0
22	04-Mar-2016	  18	Blue	m	1	0.5430	M	N	RUMT	EHNQ	brb	rbr	3	2000	1	6	0
22	04-Mar-2016	  19	Blue	c	1	1.1037	Q	C	BQSG	KCIM	br	rb	2	2000	1	6	0
22	04-Mar-2016	  20	Blue	a	0	0.7260	U	A	ICUH	RXAK	rrb	bbr	3	2000	1	6	0
22	04-Mar-2016	  21	Blue	z	0	0.6025	K	S	CGIK	ZEMS	rbbr	brrb	4	650	1	6	0
22	04-Mar-2016	  22	Blue	s	1	0.5915	S	P	IUOS	LKZP	brrb	rbbr	4	2000	1	6	0
22	04-Mar-2016	  23	Blue	n	1	1.0158	N	X	PLNW	FQXI	rbb	brr	3	2000	1	6	0
22	04-Mar-2016	  24	Blue	f	0	0.7617	A	M	FPAN	CBML	bbb	rrr	3	650	1	6	0
22	04-Mar-2016	  25	Blue	a	0	0.6978	I	M	XILD	WMEA	bb	rr	2	650	1	6	0
22	04-Mar-2016	  26	Blue	c	0	0.7608	W	J	OEAW	CLVJ	rbbr	brrb	4	650	1	6	0
22	04-Mar-2016	  27	Blue	b	0	0.8909	N	I	BNDK	TISM	bb	rr	2	2000	1	6	0
22	04-Mar-2016	  28	Blue	p	1	0.8078	N	P	SXNL	EVPQ	rrr	bbb	3	650	1	6	0
22	04-Mar-2016	  29	Blue	f	0	0.4479	Y	E	TJYX	FIEP	rrb	bbr	3	650	1	6	0
22	04-Mar-2016	  30	Blue	g	0	0.8815	I	W	JTGI	VQFW	rrbr	bbrb	4	2000	1	6	0
22	04-Mar-2016	  31	Blue	w	0	2.1568	I	K	EISP	OKYZ	bb	rr	2	650	1	6	0
22	04-Mar-2016	  32	Blue	v	1	0.8449	V	D	XVRM	PDGI	rb	br	2	650	1	6	0
22	04-Mar-2016	   1	Red	l	0	1.1147	Z	I	LZUF	BIQP	rr	bb	2	650	1	6	0
22	04-Mar-2016	   2	Red	b	0	1.1192	B	N	BKLO	NDHU	b	r	1	2000	1	6	0
22	04-Mar-2016	   3	Red	g	0	0.7146	N	R	VNKZ	GRLB	br	rb	2	650	1	6	0
22	04-Mar-2016	   4	Red	t	0	1.1426	R	J	NFRE	BUJQ	rbb	brr	3	650	1	6	0
22	04-Mar-2016	   5	Red	c	0	0.5064	T	R	QTVZ	CRKP	br	rb	2	650	1	6	0
22	04-Mar-2016	   6	Red	w	0	0.3603	D	J	KIDS	WVJO	bbb	rrr	3	2000	1	6	0
22	04-Mar-2016	   7	Red	f	0	0.7755	Y	V	FDYM	AJVR	rbb	brr	3	650	1	6	0
22	04-Mar-2016	   8	Red	j	1	2.6635	N	J	NOLP	JYEI	b	r	1	650	1	6	0
22	04-Mar-2016	   9	Red	u	1	0.5565	C	U	CJGR	UVFT	b	r	1	2000	1	6	0
22	04-Mar-2016	  10	Red	u	0	0.6624	G	E	SQGO	UDEI	brb	rbr	3	650	1	6	0
22	04-Mar-2016	  11	Red	o	1	0.8786	S	O	IFSC	PJOA	brb	rbr	3	2000	1	6	0
22	04-Mar-2016	  12	Red	j	1	1.2170	J	U	JDTB	UXWN	r	b	1	650	1	6	0
22	04-Mar-2016	  13	Red	p	0	1.6740	S	E	SWPO	EAML	b	r	1	650	1	6	0
22	04-Mar-2016	  14	Red	z	0	0.8853	O	E	ZBQO	KVSE	rbbr	brrb	4	650	1	6	0
22	04-Mar-2016	  15	Red	u	1	0.3038	P	U	VCZP	RWYU	rbbb	brrr	4	2000	1	6	0
22	04-Mar-2016	  16	Red	s	1	0.4654	S	D	RSLV	KDHX	rr	bb	2	2000	1	6	0
22	04-Mar-2016	  17	Red	w	0	0.8688	J	N	JRCZ	NVGU	b	r	1	2000	1	6	0
22	04-Mar-2016	  18	Red	k	1	1.0431	K	W	EKXI	CWQP	rr	bb	2	2000	1	6	0
22	04-Mar-2016	  19	Red	n	1	0.8251	Y	N	YVMO	NXIQ	b	r	1	2000	1	6	0
22	04-Mar-2016	  20	Red	f	1	0.5575	P	F	SLXP	HYRF	bbbb	rrrr	4	2000	1	6	0
22	04-Mar-2016	  21	Red	u	0	0.8203	I	A	UIVC	HAYT	rb	br	2	650	1	6	0
22	04-Mar-2016	  22	Red	c	0	1.0226	H	Y	MIUH	CKFY	bbrr	rrbb	4	650	1	6	0
22	04-Mar-2016	  23	Red	b	1	0.7766	D	B	IGDE	ANBR	rbb	brr	3	2000	1	6	0
22	04-Mar-2016	  24	Red	h	0	0.8028	M	L	ZJMU	XHLE	rbr	brb	3	2000	1	6	0
22	04-Mar-2016	  25	Red	y	0	0.4168	T	V	IKMT	YWXV	bbrr	rrbb	4	2000	1	6	0
22	04-Mar-2016	  26	Red	s	1	1.6052	S	F	ASZI	HFKV	rr	bb	2	2000	1	6	0
22	04-Mar-2016	  27	Red	l	1	0.7701	J	L	PJKD	ELZS	rb	br	2	2000	1	6	0
22	04-Mar-2016	  28	Red	n	0	1.0469	U	C	HYWU	XNQC	rbrr	brbb	4	2000	1	6	0
22	04-Mar-2016	  29	Red	j	0	0.4874	X	N	PEXD	JANH	brr	rbb	3	650	1	6	0
22	04-Mar-2016	  30	Red	w	0	0.7584	A	Z	PXDA	WVEZ	bbrb	rrbr	4	650	1	6	0
22	04-Mar-2016	  31	Red	h	0	0.8337	M	Q	VIFM	HCBQ	bbbr	rrrb	4	650	1	6	0
22	04-Mar-2016	  32	Red	z	1	0.8782	Y	Z	YLDK	ZOXB	b	r	1	650	1	6	0
22	04-Mar-2016	   1	Blue	c	0	0.3408	O	I	HUGO	XWCI	brrb	rbbr	4	2000	1	6	0
22	04-Mar-2016	   2	Blue	q	0	0.8072	N	D	RWCN	PJQD	bbrb	rrbr	4	2000	1	6	0
22	04-Mar-2016	   3	Blue	t	0	0.8405	Q	Y	CQIH	TYKG	rb	br	2	2000	1	6	0
22	04-Mar-2016	   4	Blue	r	1	0.7212	R	K	MERC	BVKH	brb	rbr	3	2000	1	6	0
22	04-Mar-2016	   5	Blue	i	1	1.0438	H	I	HRDZ	IXTY	r	b	1	2000	1	6	0
22	04-Mar-2016	   6	Blue	f	1	0.8775	P	F	MSPT	RIFN	rbr	brb	3	2000	1	6	0
22	04-Mar-2016	   7	Blue	u	1	1.0567	F	U	FDLQ	UZJG	r	b	1	650	1	6	0
22	04-Mar-2016	   8	Blue	g	0	1.0065	D	J	WDQU	GJLY	rr	bb	2	650	1	6	0
22	04-Mar-2016	   9	Blue	t	0	0.8814	G	J	NXGA	TPJL	rbb	brr	3	650	1	6	0
22	04-Mar-2016	  10	Blue	f	0	0.8633	E	X	FWEN	LUXB	bbb	rrr	3	650	1	6	0
22	04-Mar-2016	  11	Blue	a	1	0.8127	C	A	CTSU	AJLH	r	b	1	2000	1	6	0
22	04-Mar-2016	  12	Blue	f	0	1.0472	K	V	ONDK	JZFV	rrrr	bbbb	4	2000	1	6	0
22	04-Mar-2016	  13	Blue	p	0	0.8975	H	E	ZCNH	XPYE	rrrb	bbbr	4	650	1	6	0
22	04-Mar-2016	  14	Blue	c	1	0.6932	C	Z	ECLF	QZGV	bb	rr	2	650	1	6	0
22	04-Mar-2016	  15	Blue	y	0	0.9080	M	P	GDMS	YCPW	rbb	brr	3	2000	1	6	0
22	04-Mar-2016	  16	Blue	g	0	1.0103	N	W	ERGN	XBJW	bbbb	rrrr	4	650	1	6	0
22	04-Mar-2016	  17	Blue	c	1	2.6339	Q	C	QFZB	CGUI	r	b	1	2000	1	6	0
22	04-Mar-2016	  18	Blue	e	0	2.3978	Y	I	EFCY	XMOI	brrb	rbbr	4	2000	1	6	0
22	04-Mar-2016	  19	Blue	b	0	5.2155	F	V	SAFO	NRVT	rrb	bbr	3	2000	1	6	0
22	04-Mar-2016	  20	Blue	m	0	0.9163	H	L	NHWR	MLGO	rr	bb	2	650	1	6	0
22	04-Mar-2016	  21	Blue	k	0	1.1043	W	J	WFXO	JVPY	b	r	1	650	1	6	0
22	04-Mar-2016	  22	Blue	s	1	1.0122	S	O	SHJP	OKQN	b	r	1	650	1	6	0
22	04-Mar-2016	  23	Blue	m	0	1.2211	P	H	WFPL	MAHR	bbb	rrr	3	650	1	6	0
22	04-Mar-2016	  24	Blue	s	1	0.7190	S	C	VSJF	UCEM	bb	rr	2	2000	1	6	0
22	04-Mar-2016	  25	Blue	i	1	1.1167	I	W	HNOI	MAYW	rrbb	bbrr	4	650	1	6	0
22	04-Mar-2016	  26	Blue	w	0	1.5231	Z	P	EROZ	VHAP	rbbb	brrr	4	650	1	6	0
22	04-Mar-2016	  27	Blue	a	0	1.7871	B	X	ABYU	IXRQ	br	rb	2	650	1	6	0
22	04-Mar-2016	  28	Blue	m	0	2.4620	B	Q	BTFO	QLVZ	r	b	1	2000	1	6	0
22	04-Mar-2016	  29	Blue	s	0	0.5570	E	L	SENO	CLWY	bb	rr	2	2000	1	6	0
22	04-Mar-2016	  30	Blue	g	0	0.6780	A	W	ZLAO	GSWV	rbr	brb	3	650	1	6	0
22	04-Mar-2016	  31	Blue	h	1	1.2242	H	K	HCQJ	KLRY	b	r	1	650	1	6	0
22	04-Mar-2016	  32	Blue	g	0	1.7552	K	V	OKPM	GVFE	rr	bb	2	2000	1	6	0
22	04-Mar-2016	   1	Red	p	0	1.1481	L	P	nL	nP	br	rb	2	650	1	6	1
22	04-Mar-2016	   2	Red	t	1	0.7127	I	T	nnnI	nnnT	rbrb	brbr	4	650	1	6	1
22	04-Mar-2016	   3	Red	m	1	0.8197	L	M	nL	nM	rb	br	2	650	1	6	1
22	04-Mar-2016	   4	Red	n	1	1.0416	X	N	X	N	b	r	1	650	1	6	1
22	04-Mar-2016	   5	Red	q	0	0.7307	W	D	nW	nD	rr	bb	2	2000	1	6	1
22	04-Mar-2016	   6	Red	z	0	0.7773	R	Z	nnnR	nnnZ	rrrr	bbbb	4	2000	1	6	1
22	04-Mar-2016	   7	Red	u	1	1.0567	U	V	U	V	r	b	1	2000	1	6	1
22	04-Mar-2016	   8	Red	a	1	0.8336	H	A	nnH	nnA	bbb	rrr	3	2000	1	6	1
22	04-Mar-2016	   9	Red	o	0	1.7516	T	C	nT	nC	bb	rr	2	650	1	6	1
22	04-Mar-2016	  10	Red	h	0	14.7582	Y	X	Y	X	b	r	1	650	1	6	1
22	04-Mar-2016	  11	Red	s	1	0.9186	M	S	nnM	nnS	bbb	rrr	3	650	1	6	1
22	04-Mar-2016	  12	Red	w	1	0.7958	W	D	nnW	nnD	rrr	bbb	3	650	1	6	1
22	04-Mar-2016	  13	Red	v	0	1.3335	D	O	nnD	nnO	brr	rbb	3	650	1	6	1
22	04-Mar-2016	  14	Red	i	1	0.7316	I	P	nI	nP	rr	bb	2	2000	1	6	1
22	04-Mar-2016	  15	Red	c	1	1.1368	Q	C	nnnQ	nnnC	rrbb	bbrr	4	2000	1	6	1
22	04-Mar-2016	  16	Red	p	1	1.1409	P	K	P	K	r	b	1	2000	1	6	1
22	04-Mar-2016	  17	Red	f	1	0.3147	S	F	nnS	nnF	brb	rbr	3	2000	1	6	1
22	04-Mar-2016	  18	Red	n	1	0.7790	A	N	A	N	b	r	1	650	1	6	1
22	04-Mar-2016	  19	Red	y	0	0.7390	L	Y	L	Y	r	b	1	2000	1	6	1
22	04-Mar-2016	  20	Red	v	1	0.9972	V	A	nV	nA	rr	bb	2	2000	1	6	1
22	04-Mar-2016	  21	Red	n	1	0.4481	W	N	nnW	nnN	brb	rbr	3	2000	1	6	1
22	04-Mar-2016	  22	Red	e	1	0.7668	E	Q	nnnE	nnnQ	rrrr	bbbb	4	650	1	6	1
22	04-Mar-2016	  23	Red	z	1	0.8130	Z	O	nnnZ	nnnO	brbr	rbrb	4	2000	1	6	1
22	04-Mar-2016	  24	Red	q	1	0.8450	Q	E	nnQ	nnE	brr	rbb	3	650	1	6	1
22	04-Mar-2016	  25	Red	j	1	0.6903	Z	J	Z	J	b	r	1	2000	1	6	1
22	04-Mar-2016	  26	Red	y	1	0.7827	Y	S	nY	nS	rr	bb	2	2000	1	6	1
22	04-Mar-2016	  27	Red	r	1	0.9294	R	V	nnnR	nnnV	rbrr	brbb	4	650	1	6	1
22	04-Mar-2016	  28	Red	t	1	1.7478	Z	T	Z	T	b	r	1	650	1	6	1
22	04-Mar-2016	  29	Red	n	1	1.1965	N	X	nnN	nnX	rbr	brb	3	2000	1	6	1
22	04-Mar-2016	  30	Red	m	1	1.5245	U	M	nnnU	nnnM	rrrb	bbbr	4	2000	1	6	1
22	04-Mar-2016	  31	Red	o	0	2.1806	Y	X	nnnY	nnnX	rrbr	bbrb	4	650	1	6	1
22	04-Mar-2016	  32	Red	p	0	1.1644	T	K	nT	nK	rb	br	2	650	1	6	1
22	04-Mar-2016	   1	Blue	g	1	0.3774	E	G	nnnE	nnnG	bbbr	rrrb	4	2000	1	6	1
22	04-Mar-2016	   2	Blue	h	1	0.7301	O	H	nnO	nnH	bbr	rrb	3	2000	1	6	1
22	04-Mar-2016	   3	Blue	x	1	0.8459	X	T	nX	nT	bb	rr	2	2000	1	6	1
22	04-Mar-2016	   4	Blue	q	1	0.7497	Q	G	nnnQ	nnnG	bbbb	rrrr	4	650	1	6	1
22	04-Mar-2016	   5	Blue	g	1	0.9465	G	U	nnnG	nnnU	rbbb	brrr	4	650	1	6	1
22	04-Mar-2016	   6	Blue	l	0	1.0227	T	Y	nnnT	nnnY	rbrb	brbr	4	650	1	6	1
22	04-Mar-2016	   7	Blue	m	1	1.4362	U	M	nnnU	nnnM	brbr	rbrb	4	2000	1	6	1
22	04-Mar-2016	   8	Blue	b	0	1.6133	I	Q	I	Q	r	b	1	2000	1	6	1
22	04-Mar-2016	   9	Blue	k	0	1.0016	J	S	nnJ	nnS	rbr	brb	3	650	1	6	1
22	04-Mar-2016	  10	Blue	j	0	1.5839	H	J	H	J	b	r	1	650	1	6	1
22	04-Mar-2016	  11	Blue	y	0	2.0851	S	E	nS	nE	bb	rr	2	650	1	6	1
22	04-Mar-2016	  12	Blue	r	0	0.6240	V	P	nV	nP	br	rb	2	2000	1	6	1
22	04-Mar-2016	  13	Blue	p	0	3.0222	V	M	nV	nM	br	rb	2	650	1	6	1
22	04-Mar-2016	  14	Blue	p	1	0.3068	P	N	nnP	nnN	brb	rbr	3	2000	1	6	1
22	04-Mar-2016	  15	Blue	c	1	0.9847	C	I	nnnC	nnnI	rrrb	bbbr	4	2000	1	6	1
22	04-Mar-2016	  16	Blue	r	0	2.9719	U	L	nnU	nnL	brr	rbb	3	650	1	6	1
22	04-Mar-2016	  17	Blue	w	0	2.7069	M	K	nnnM	nnnK	bbrr	rrbb	4	2000	1	6	1
22	04-Mar-2016	  18	Blue	k	0	2.4581	H	X	nH	nX	rb	br	2	2000	1	6	1
22	04-Mar-2016	  19	Blue	y	0	0.8181	M	J	nnM	nnJ	bbr	rrb	3	2000	1	6	1
22	04-Mar-2016	  20	Blue	z	0	1.0730	J	T	J	T	b	r	1	2000	1	6	1
22	04-Mar-2016	  21	Blue	m	0	5.5454	N	Q	nnN	nnQ	rbb	brr	3	2000	1	6	1
22	04-Mar-2016	  22	Blue	z	1	1.6584	V	Z	V	Z	r	b	1	650	1	6	1
22	04-Mar-2016	  23	Blue	p	0	10.7015	W	F	nnW	nnF	brb	rbr	3	650	1	6	1
22	04-Mar-2016	  24	Blue	n	0	4.0677	M	Y	nnM	nnY	brb	rbr	3	650	1	6	1
22	04-Mar-2016	  25	Blue	o	0	3.7148	L	U	nL	nU	br	rb	2	650	1	6	1
22	04-Mar-2016	  26	Blue	u	0	2.7225	Q	U	Q	U	b	r	1	2000	1	6	1
22	04-Mar-2016	  27	Blue	l	0	6.7515	C	Z	nC	nZ	bb	rr	2	650	1	6	1
22	04-Mar-2016	  28	Blue	t	0	12.0648	X	O	nX	nO	rr	bb	2	2000	1	6	1
22	04-Mar-2016	  29	Blue	p	0	6.2046	L	U	L	U	b	r	1	650	1	6	1
22	04-Mar-2016	  30	Blue	h	1	0.8429	E	H	nnnE	nnnH	rbbr	brrb	4	650	1	6	1
22	04-Mar-2016	  31	Blue	m	0	11.4720	B	P	B	P	b	r	1	650	1	6	1
22	04-Mar-2016	  32	Blue	f	0	8.6332	D	V	D	V	b	r	1	2000	1	6	1
22	04-Mar-2016	   1	Red	r	0	0.3288	Y	N	nnnY	nnnN	bbbr	rrrb	4	2000	1	6	1
22	04-Mar-2016	   2	Red	w	1	1.1106	W	V	nnnW	nnnV	bbbr	rrrb	4	2000	1	6	1
22	04-Mar-2016	   3	Red	u	1	0.9096	P	U	nnnP	nnnU	rbbb	brrr	4	650	1	6	1
22	04-Mar-2016	   4	Red	b	1	1.5914	K	B	K	B	b	r	1	650	1	6	1
22	04-Mar-2016	   5	Red	k	1	0.7115	W	K	nnnW	nnnK	rbrb	brbr	4	650	1	6	1
22	04-Mar-2016	   6	Red	y	1	0.7872	F	Y	nnF	nnY	bbb	rrr	3	650	1	6	1
22	04-Mar-2016	   7	Red	m	0	0.9242	O	U	nnO	nnU	rbr	brb	3	650	1	6	1
22	04-Mar-2016	   8	Red	e	1	0.4078	P	E	nP	nE	bb	rr	2	2000	1	6	1
22	04-Mar-2016	   9	Red	s	1	0.5746	D	S	nnD	nnS	brb	rbr	3	650	1	6	1
22	04-Mar-2016	  10	Red	o	1	0.2885	A	O	nnA	nnO	rrb	bbr	3	2000	1	6	1
22	04-Mar-2016	  11	Red	o	0	0.2915	O	K	nO	nK	rb	br	2	2000	1	6	1
22	04-Mar-2016	  12	Red	x	0	0.8780	H	X	nnnH	nnnX	brbr	rbrb	4	650	1	6	1
22	04-Mar-2016	  13	Red	m	0	1.6355	T	N	nT	nN	bb	rr	2	650	1	6	1
22	04-Mar-2016	  14	Red	y	0	0.9402	O	Y	O	Y	r	b	1	650	1	6	1
22	04-Mar-2016	  15	Red	w	0	1.7779	B	E	nnnB	nnnE	rbbr	brrb	4	650	1	6	1
22	04-Mar-2016	  16	Red	b	1	1.2388	B	U	B	U	r	b	1	2000	1	6	1
22	04-Mar-2016	  17	Red	o	0	1.4094	E	Y	nnE	nnY	rrb	bbr	3	2000	1	6	1
22	04-Mar-2016	  18	Red	l	1	1.3318	L	J	L	J	r	b	1	650	1	6	1
22	04-Mar-2016	  19	Red	u	1	0.5639	M	U	nnM	nnU	rrb	bbr	3	2000	1	6	1
22	04-Mar-2016	  20	Red	y	1	0.8078	Y	D	nnnY	nnnD	rbbr	brrb	4	2000	1	6	1
22	04-Mar-2016	  21	Red	m	0	5.4550	J	Z	nJ	nZ	rb	br	2	2000	1	6	1
22	04-Mar-2016	  22	Red	m	0	2.0013	M	Z	nnnM	nnnZ	brrb	rbbr	4	2000	1	6	1
22	04-Mar-2016	  23	Red	i	0	1.8149	N	H	nN	nH	br	rb	2	650	1	6	1
22	04-Mar-2016	  24	Red	r	1	0.6751	R	E	R	E	r	b	1	2000	1	6	1
22	04-Mar-2016	  25	Red	r	0	8.8301	T	S	nT	nS	rb	br	2	650	1	6	1
22	04-Mar-2016	  26	Red	k	0	2.1256	X	Z	X	Z	b	r	1	2000	1	6	1
22	04-Mar-2016	  27	Red	p	0	1.0643	B	V	nnB	nnV	bbr	rrb	3	2000	1	6	1
22	04-Mar-2016	  28	Red	m	0	4.5835	Y	R	nY	nR	br	rb	2	650	1	6	1
22	04-Mar-2016	  29	Red	j	1	1.5138	J	U	J	U	r	b	1	650	1	6	1
22	04-Mar-2016	  30	Red	l	0	2.7680	L	K	L	K	b	r	1	2000	1	6	1
22	04-Mar-2016	  31	Red	s	1	0.6367	V	S	nnV	nnS	bbb	rrr	3	650	1	6	1
22	04-Mar-2016	  32	Red	j	1	0.3543	P	J	nP	nJ	bb	rr	2	2000	1	6	1
22	04-Mar-2016	   1	Blue	d	0	0.5043	S	T	nS	nT	rr	bb	2	2000	1	6	1
22	04-Mar-2016	   2	Blue	k	0	1.0344	Z	K	nZ	nK	rb	br	2	2000	1	6	1
22	04-Mar-2016	   3	Blue	c	1	0.5960	H	C	nnH	nnC	bbr	rrb	3	2000	1	6	1
22	04-Mar-2016	   4	Blue	z	1	0.2940	E	Z	nnE	nnZ	rrr	bbb	3	2000	1	6	1
22	04-Mar-2016	   5	Blue	s	1	0.4494	S	Z	nnnS	nnnZ	rbbb	brrr	4	650	1	6	1
22	04-Mar-2016	   6	Blue	b	1	0.2815	Y	B	nnY	nnB	bbr	rrb	3	2000	1	6	1
22	04-Mar-2016	   7	Blue	z	1	0.8448	Y	Z	nnnY	nnnZ	rbrr	brbb	4	650	1	6	1
22	04-Mar-2016	   8	Blue	x	1	0.9721	N	X	nN	nX	br	rb	2	650	1	6	1
22	04-Mar-2016	   9	Blue	o	1	0.8588	R	O	R	O	r	b	1	650	1	6	1
22	04-Mar-2016	  10	Blue	t	1	0.8883	L	T	nL	nT	rr	bb	2	650	1	6	1
22	04-Mar-2016	  11	Blue	u	1	0.7093	I	U	nI	nU	br	rb	2	650	1	6	1
22	04-Mar-2016	  12	Blue	r	1	0.7031	L	R	nL	nR	br	rb	2	650	1	6	1
22	04-Mar-2016	  13	Blue	n	1	0.7475	E	N	nE	nN	br	rb	2	2000	1	6	1
22	04-Mar-2016	  14	Blue	r	1	1.1972	R	K	R	K	b	r	1	2000	1	6	1
22	04-Mar-2016	  15	Blue	c	1	0.3309	C	A	nnnC	nnnA	rbbb	brrr	4	2000	1	6	1
22	04-Mar-2016	  16	Blue	f	1	1.1620	F	X	F	X	b	r	1	650	1	6	1
22	04-Mar-2016	  17	Blue	l	1	0.8056	L	O	L	O	b	r	1	2000	1	6	1
22	04-Mar-2016	  18	Blue	a	1	0.7488	Z	A	nnZ	nnA	rrr	bbb	3	650	1	6	1
22	04-Mar-2016	  19	Blue	t	0	1.1040	T	I	nnT	nnI	rbr	brb	3	650	1	6	1
22	04-Mar-2016	  20	Blue	e	1	0.2568	J	E	nnnJ	nnnE	rrrr	bbbb	4	2000	1	6	1
22	04-Mar-2016	  21	Blue	d	1	0.4957	L	D	nnL	nnD	brr	rbb	3	2000	1	6	1
22	04-Mar-2016	  22	Blue	h	1	0.4495	O	H	O	H	r	b	1	2000	1	6	1
22	04-Mar-2016	  23	Blue	b	0	0.6833	G	B	G	B	b	r	1	650	1	6	1
22	04-Mar-2016	  24	Blue	f	0	0.4881	H	F	H	F	b	r	1	2000	1	6	1
22	04-Mar-2016	  25	Blue	x	1	0.7725	H	X	nnnH	nnnX	rrrr	bbbb	4	650	1	6	1
22	04-Mar-2016	  26	Blue	m	1	0.6900	N	M	nnnN	nnnM	rrbr	bbrb	4	2000	1	6	1
22	04-Mar-2016	  27	Blue	f	1	0.5004	F	V	F	V	b	r	1	650	1	6	1
22	04-Mar-2016	  28	Blue	o	1	0.3148	K	O	nnnK	nnnO	rbbr	brrb	4	2000	1	6	1
22	04-Mar-2016	  29	Blue	j	1	0.5561	J	F	nJ	nF	bb	rr	2	2000	1	6	1
22	04-Mar-2016	  30	Blue	y	1	0.5351	Z	Y	nnZ	nnY	rrr	bbb	3	650	1	6	1
22	04-Mar-2016	  31	Blue	t	1	0.7454	T	O	nnnT	nnnO	rrrb	bbbr	4	650	1	6	1
22	04-Mar-2016	  32	Blue	l	1	0.6606	O	L	nnO	nnL	rbr	brb	3	650	1	6	1
23	04-Mar-2016	   1	Blue	s	0	2.9468	L	O	L	O	b	r	1	650	1	6	1
23	04-Mar-2016	   2	Blue	o	1	1.6597	E	O	nnnE	nnnO	bbrr	rrbb	4	2000	1	6	1
23	04-Mar-2016	   3	Blue	f	1	3.0030	F	R	F	R	b	r	1	650	1	6	1
23	04-Mar-2016	   4	Blue	n	0	1.0907	B	G	nnnB	nnnG	brrr	rbbb	4	2000	1	6	1
23	04-Mar-2016	   5	Blue	q	0	1.5790	U	S	nnnU	nnnS	rrbb	bbrr	4	650	1	6	1
23	04-Mar-2016	   6	Blue	r	1	1.4482	D	R	nD	nR	rr	bb	2	650	1	6	1
23	04-Mar-2016	   7	Blue	o	0	1.6874	V	J	V	J	r	b	1	650	1	6	1
23	04-Mar-2016	   8	Blue	k	0	2.3451	L	J	nL	nJ	rb	br	2	650	1	6	1
23	04-Mar-2016	   9	Blue	w	0	1.4606	O	T	nnnO	nnnT	brrr	rbbb	4	650	1	6	1
23	04-Mar-2016	  10	Blue	f	1	1.1276	F	H	nnnF	nnnH	bbbb	rrrr	4	650	1	6	1
23	04-Mar-2016	  11	Blue	o	0	1.1887	Q	C	Q	C	b	r	1	2000	1	6	1
23	04-Mar-2016	  12	Blue	q	0	0.4169	O	M	nnO	nnM	bbr	rrb	3	2000	1	6	1
23	04-Mar-2016	  13	Blue	n	0	1.3433	K	B	nnK	nnB	bbr	rrb	3	650	1	6	1
23	04-Mar-2016	  14	Blue	w	0	2.3006	Y	F	nnY	nnF	brb	rbr	3	650	1	6	1
23	04-Mar-2016	  15	Blue	g	1	1.1523	G	F	nnG	nnF	bbb	rrr	3	650	1	6	1
23	04-Mar-2016	  16	Blue	d	0	1.7923	H	C	nnnH	nnnC	bbbb	rrrr	4	650	1	6	1
23	04-Mar-2016	  17	Blue	d	0	2.7792	O	L	O	L	b	r	1	2000	1	6	1
23	04-Mar-2016	  18	Blue	o	0	0.9023	E	W	nE	nW	bb	rr	2	2000	1	6	1
23	04-Mar-2016	  19	Blue	z	1	0.0025	Z	O	Z	O	b	r	1	2000	1	6	1
23	04-Mar-2016	  20	Blue	n	0	2.0294	B	V	B	V	r	b	1	650	1	6	1
23	04-Mar-2016	  21	Blue	s	0	1.2427	F	D	nF	nD	bb	rr	2	2000	1	6	1
23	04-Mar-2016	  22	Blue	n	0	1.2771	M	L	nnM	nnL	rbb	brr	3	2000	1	6	1
23	04-Mar-2016	  23	Blue	s	0	0.9703	R	A	nnnR	nnnA	bbrr	rrbb	4	2000	1	6	1
23	04-Mar-2016	  24	Blue	w	0	1.4153	H	S	nnnH	nnnS	rbrr	brbb	4	2000	1	6	1
23	04-Mar-2016	  25	Blue	w	0	2.1480	V	J	nV	nJ	rr	bb	2	2000	1	6	1
23	04-Mar-2016	  26	Blue	r	0	0.9960	W	S	nW	nS	rr	bb	2	650	1	6	1
23	04-Mar-2016	  27	Blue	w	0	0.6606	Z	F	Z	F	b	r	1	2000	1	6	1
23	04-Mar-2016	  28	Blue	w	0	1.5148	H	X	nnH	nnX	rrb	bbr	3	2000	1	6	1
23	04-Mar-2016	  29	Blue	a	0	1.6989	A	N	nA	nN	br	rb	2	650	1	6	1
23	04-Mar-2016	  30	Blue	o	1	1.3310	O	A	nnO	nnA	bbb	rrr	3	650	1	6	1
23	04-Mar-2016	  31	Blue	n	0	1.1931	L	Q	nL	nQ	br	rb	2	2000	1	6	1
23	04-Mar-2016	  32	Blue	o	0	0.8303	C	I	nnC	nnI	bbr	rrb	3	2000	1	6	1
23	04-Mar-2016	   1	Red	r	0	1.1344	K	M	nnK	nnM	brr	rbb	3	2000	1	6	1
23	04-Mar-2016	   2	Red	o	0	1.1629	W	K	nnW	nnK	bbr	rrb	3	650	1	6	1
23	04-Mar-2016	   3	Red	x	1	1.0653	N	X	nnnN	nnnX	rbbb	brrr	4	650	1	6	1
23	04-Mar-2016	   4	Red	q	0	1.2014	J	V	nnnJ	nnnV	rbbb	brrr	4	650	1	6	1
23	04-Mar-2016	   5	Red	z	1	1.3976	Z	B	nZ	nB	rr	bb	2	2000	1	6	1
23	04-Mar-2016	   6	Red	w	0	1.4706	S	A	nS	nA	bb	rr	2	650	1	6	1
23	04-Mar-2016	   7	Red	q	0	2.0422	J	Z	nnJ	nnZ	rbr	brb	3	2000	1	6	1
23	04-Mar-2016	   8	Red	m	1	1.1601	G	M	nnG	nnM	brb	rbr	3	650	1	6	1
23	04-Mar-2016	   9	Red	p	1	1.1061	F	P	F	P	b	r	1	2000	1	6	1
23	04-Mar-2016	  10	Red	r	0	2.9263	C	M	C	M	b	r	1	2000	1	6	1
23	04-Mar-2016	  11	Red	t	0	0.6118	L	V	L	V	r	b	1	650	1	6	1
23	04-Mar-2016	  12	Red	j	1	7.9028	J	U	nnnJ	nnnU	rbrr	brbb	4	2000	1	6	1
23	04-Mar-2016	  13	Red	q	1	0.9528	Q	N	nnnQ	nnnN	rrbr	bbrb	4	2000	1	6	1
23	04-Mar-2016	  14	Red	t	0	0.9246	Y	L	Y	L	r	b	1	2000	1	6	1
23	04-Mar-2016	  15	Red	p	1	1.5377	U	P	nnU	nnP	rrb	bbr	3	2000	1	6	1
23	04-Mar-2016	  16	Red	p	1	0.9589	P	R	P	R	r	b	1	2000	1	6	1
23	04-Mar-2016	  17	Red	r	1	1.0160	R	A	R	A	r	b	1	650	1	6	1
23	04-Mar-2016	  18	Red	h	1	0.4673	K	H	nnK	nnH	bbb	rrr	3	2000	1	6	1
23	04-Mar-2016	  19	Red	c	0	1.2670	I	C	nnnI	nnnC	bbbr	rrrb	4	2000	1	6	1
23	04-Mar-2016	  20	Red	a	1	1.1248	A	C	nnnA	nnnC	rrbr	bbrb	4	650	1	6	1
23	04-Mar-2016	  21	Red	i	1	1.3682	I	E	I	E	r	b	1	650	1	6	1
23	04-Mar-2016	  22	Red	q	1	1.1335	L	Q	nnL	nnQ	bbb	rrr	3	650	1	6	1
23	04-Mar-2016	  23	Red	w	1	2.0997	Q	W	nnQ	nnW	brb	rbr	3	650	1	6	1
23	04-Mar-2016	  24	Red	m	1	0.7226	M	A	nnnM	nnnA	rrrr	bbbb	4	2000	1	6	1
23	04-Mar-2016	  25	Red	s	0	1.1727	P	I	nP	nI	bb	rr	2	2000	1	6	1
23	04-Mar-2016	  26	Red	c	1	0.9499	C	W	C	W	r	b	1	650	1	6	1
23	04-Mar-2016	  27	Red	j	0	2.8718	X	J	nX	nJ	br	rb	2	650	1	6	1
23	04-Mar-2016	  28	Red	n	1	1.2080	N	X	nN	nX	rr	bb	2	650	1	6	1
23	04-Mar-2016	  29	Red	c	1	0.8821	C	J	nC	nJ	rr	bb	2	650	1	6	1
23	04-Mar-2016	  30	Red	j	1	0.3992	J	C	nJ	nC	rr	bb	2	2000	1	6	1
23	04-Mar-2016	  31	Red	b	0	1.5492	L	A	nL	nA	rb	br	2	2000	1	6	1
23	04-Mar-2016	  32	Red	r	0	1.2213	G	N	nnnG	nnnN	bbbr	rrrb	4	650	1	6	1
23	04-Mar-2016	   1	Blue	b	0	1.1731	G	E	G	E	b	r	1	2000	1	6	1
23	04-Mar-2016	   2	Blue	w	0	1.4377	Y	S	Y	S	r	b	1	2000	1	6	1
23	04-Mar-2016	   3	Blue	g	0	0.8682	W	G	nnnW	nnnG	bbrb	rrbr	4	2000	1	6	1
23	04-Mar-2016	   4	Blue	q	0	1.1658	X	P	nnnX	nnnP	rrbr	bbrb	4	2000	1	6	1
23	04-Mar-2016	   5	Blue	q	1	1.0183	Q	T	nnQ	nnT	brb	rbr	3	650	1	6	1
23	04-Mar-2016	   6	Blue	l	1	1.3545	P	L	nP	nL	br	rb	2	650	1	6	1
23	04-Mar-2016	   7	Blue	p	1	1.0483	P	C	nnP	nnC	rrb	bbr	3	2000	1	6	1
23	04-Mar-2016	   8	Blue	e	1	1.0700	Q	E	Q	E	r	b	1	650	1	6	1
23	04-Mar-2016	   9	Blue	q	0	1.8932	A	Y	A	Y	b	r	1	2000	1	6	1
23	04-Mar-2016	  10	Blue	q	0	1.4074	P	M	nnP	nnM	rrb	bbr	3	650	1	6	1
23	04-Mar-2016	  11	Blue	b	0	0.4212	V	U	nnnV	nnnU	brbb	rbrr	4	2000	1	6	1
23	04-Mar-2016	  12	Blue	b	1	2.4222	B	K	nnnB	nnnK	brbb	rbrr	4	650	1	6	1
23	04-Mar-2016	  13	Blue	b	0	0.9993	B	A	nnnB	nnnA	rbrr	brbb	4	650	1	6	1
23	04-Mar-2016	  14	Blue	s	1	0.8488	U	S	nU	nS	rr	bb	2	2000	1	6	1
23	04-Mar-2016	  15	Blue	w	0	1.5067	I	L	nnI	nnL	rbr	brb	3	2000	1	6	1
23	04-Mar-2016	  16	Blue	h	1	1.1482	J	H	nnnJ	nnnH	brrr	rbbb	4	2000	1	6	1
23	04-Mar-2016	  17	Blue	f	1	0.9079	I	F	nnI	nnF	brr	rbb	3	2000	1	6	1
23	04-Mar-2016	  18	Blue	j	1	1.2016	J	U	nnJ	nnU	brb	rbr	3	2000	1	6	1
23	04-Mar-2016	  19	Blue	y	1	0.9178	U	Y	nnnU	nnnY	rbrr	brbb	4	650	1	6	1
23	04-Mar-2016	  20	Blue	l	1	0.8217	L	X	nnnL	nnnX	brbb	rbrr	4	650	1	6	1
23	04-Mar-2016	  21	Blue	y	1	0.8759	Y	D	nY	nD	bb	rr	2	650	1	6	1
23	04-Mar-2016	  22	Blue	g	1	1.1114	G	Q	G	Q	b	r	1	650	1	6	1
23	04-Mar-2016	  23	Blue	s	1	0.7566	C	S	C	S	r	b	1	650	1	6	1
23	04-Mar-2016	  24	Blue	p	0	0.9971	T	H	nT	nH	bb	rr	2	2000	1	6	1
23	04-Mar-2016	  25	Blue	t	0	0.6957	Q	G	nnQ	nnG	brb	rbr	3	650	1	6	1
23	04-Mar-2016	  26	Blue	r	1	0.9230	R	M	nR	nM	rb	br	2	650	1	6	1
23	04-Mar-2016	  27	Blue	m	1	0.4874	Q	M	nQ	nM	rr	bb	2	2000	1	6	1
23	04-Mar-2016	  28	Blue	r	0	1.2729	N	T	nN	nT	rb	br	2	650	1	6	1
23	04-Mar-2016	  29	Blue	n	1	0.9777	Q	N	nQ	nN	br	rb	2	2000	1	6	1
23	04-Mar-2016	  30	Blue	t	1	0.8263	Q	T	Q	T	r	b	1	650	1	6	1
23	04-Mar-2016	  31	Blue	z	1	1.0176	R	Z	nnR	nnZ	brr	rbb	3	650	1	6	1
23	04-Mar-2016	  32	Blue	l	0	0.8665	Q	L	Q	L	b	r	1	2000	1	6	1
23	04-Mar-2016	   1	Red	g	1	1.2499	Z	G	Z	G	b	r	1	2000	1	6	1
23	04-Mar-2016	   2	Red	d	1	0.9757	D	C	D	C	r	b	1	650	1	6	1
23	04-Mar-2016	   3	Red	a	0	1.5615	U	A	nU	nA	br	rb	2	650	1	6	1
23	04-Mar-2016	   4	Red	r	0	1.5259	I	N	nI	nN	br	rb	2	650	1	6	1
23	04-Mar-2016	   5	Red	i	1	0.7561	I	Q	I	Q	r	b	1	2000	1	6	1
23	04-Mar-2016	   6	Red	s	1	0.4138	S	A	nS	nA	rr	bb	2	2000	1	6	1
23	04-Mar-2016	   7	Red	z	0	0.8848	V	M	nnV	nnM	rbr	brb	3	2000	1	6	1
23	04-Mar-2016	   8	Red	w	0	1.4113	E	R	nnE	nnR	rrb	bbr	3	650	1	6	1
23	04-Mar-2016	   9	Red	s	1	0.7513	S	P	nnS	nnP	bbr	rrb	3	650	1	6	1
23	04-Mar-2016	  10	Red	f	0	0.8677	A	X	nnA	nnX	bbr	rrb	3	2000	1	6	1
23	04-Mar-2016	  11	Red	p	1	1.3357	P	A	P	A	r	b	1	650	1	6	1
23	04-Mar-2016	  12	Red	w	0	1.2639	Y	P	nnnY	nnnP	bbrb	rrbr	4	650	1	6	1
23	04-Mar-2016	  13	Red	w	0	1.1665	M	C	nM	nC	rr	bb	2	650	1	6	1
23	04-Mar-2016	  14	Red	c	1	1.0027	C	Z	nC	nZ	br	rb	2	2000	1	6	1
23	04-Mar-2016	  15	Red	r	0	2.2383	C	Y	nnnC	nnnY	bbbr	rrrb	4	650	1	6	1
23	04-Mar-2016	  16	Red	r	0	1.0461	R	U	nnR	nnU	rbb	brr	3	2000	1	6	1
23	04-Mar-2016	  17	Red	p	1	0.8462	K	P	nK	nP	bb	rr	2	2000	1	6	1
23	04-Mar-2016	  18	Red	b	0	0.7835	H	N	nnnH	nnnN	rbbr	brrb	4	650	1	6	1
23	04-Mar-2016	  19	Red	d	0	1.5380	N	Y	nnnN	nnnY	bbbr	rrrb	4	650	1	6	1
23	04-Mar-2016	  20	Red	e	1	0.6804	P	E	P	E	b	r	1	2000	1	6	1
23	04-Mar-2016	  21	Red	w	0	1.5580	M	R	nnM	nnR	brr	rbb	3	2000	1	6	1
23	04-Mar-2016	  22	Red	o	1	1.2360	L	O	nnL	nnO	bbb	rrr	3	650	1	6	1
23	04-Mar-2016	  23	Red	l	1	0.2505	L	V	nnnL	nnnV	bbrr	rrbb	4	2000	1	6	1
23	04-Mar-2016	  24	Red	n	1	2.0521	N	G	N	G	r	b	1	650	1	6	1
23	04-Mar-2016	  25	Red	q	0	0.7798	N	P	nnnN	nnnP	rbbb	brrr	4	2000	1	6	1
23	04-Mar-2016	  26	Red	q	1	1.0402	Q	R	nnnQ	nnnR	rrbr	bbrb	4	2000	1	6	1
23	04-Mar-2016	  27	Red	o	0	1.7842	H	B	nH	nB	br	rb	2	650	1	6	1
23	04-Mar-2016	  28	Red	e	1	1.1371	E	I	nnnE	nnnI	rrrr	bbbb	4	2000	1	6	1
23	04-Mar-2016	  29	Red	c	1	0.9575	C	O	nnC	nnO	bbr	rrb	3	650	1	6	1
23	04-Mar-2016	  30	Red	a	1	0.2152	M	A	M	A	b	r	1	2000	1	6	1
23	04-Mar-2016	  31	Red	n	1	0.8344	X	N	X	N	b	r	1	650	1	6	1
23	04-Mar-2016	  32	Red	n	1	0.5462	O	N	nO	nN	bb	rr	2	2000	1	6	1
23	04-Mar-2016	   1	Blue	a	0	1.5902	Q	L	AYQE	ZPLO	brb	rbr	3	650	1	6	0
23	04-Mar-2016	   2	Blue	p	0	0.9094	U	K	ANSU	BFPK	brrb	rbbr	4	650	1	6	0
23	04-Mar-2016	   3	Blue	z	1	0.8873	D	Z	DBVX	ZRAT	r	b	1	650	1	6	0
23	04-Mar-2016	   4	Blue	u	0	1.1447	P	X	WNOP	BUKX	rrbr	bbrb	4	2000	1	6	0
23	04-Mar-2016	   5	Blue	s	0	3.0362	T	J	TAVY	JMQS	b	r	1	650	1	6	0
23	04-Mar-2016	   6	Blue	f	1	1.0686	F	X	FHWR	XLGK	b	r	1	2000	1	6	0
23	04-Mar-2016	   7	Blue	i	1	1.0903	I	K	XIZS	HKTN	bb	rr	2	650	1	6	0
23	04-Mar-2016	   8	Blue	p	0	0.9458	J	I	YJFC	PITW	rr	bb	2	2000	1	6	0
23	04-Mar-2016	   9	Blue	t	1	0.8120	T	E	GTPO	IEXF	bb	rr	2	2000	1	6	0
23	04-Mar-2016	  10	Blue	q	0	1.1814	B	R	HBNG	QRAO	br	rb	2	2000	1	6	0
23	04-Mar-2016	  11	Blue	w	0	0.9850	Z	X	DWZC	STXR	bbr	rrb	3	650	1	6	0
23	04-Mar-2016	  12	Blue	d	0	1.0250	A	T	XAPS	DTQN	rr	bb	2	650	1	6	0
23	04-Mar-2016	  13	Blue	e	0	1.9248	Q	C	NMFQ	WYEC	rrrr	bbbb	4	650	1	6	0
23	04-Mar-2016	  14	Blue	s	0	1.0362	N	P	ZNMF	TPRY	rr	bb	2	650	1	6	0
23	04-Mar-2016	  15	Blue	j	1	0.8489	J	Z	FTSJ	LVQZ	bbbb	rrrr	4	2000	1	6	0
23	04-Mar-2016	  16	Blue	o	0	0.9528	U	J	FRXU	SNOJ	brrb	rbbr	4	650	1	6	0
23	04-Mar-2016	  17	Blue	i	0	0.8627	J	Z	NKJB	WIZH	rrb	bbr	3	2000	1	6	0
23	04-Mar-2016	  18	Blue	v	0	1.5420	J	T	NVJK	IRTF	rbr	brb	3	2000	1	6	0
23	04-Mar-2016	  19	Blue	g	1	0.8974	G	Y	LUAG	TSHY	rbrb	brbr	4	2000	1	6	0
23	04-Mar-2016	  20	Blue	t	0	1.0528	W	R	TWQA	MREN	bb	rr	2	650	1	6	0
23	04-Mar-2016	  21	Blue	y	0	1.0450	B	E	IYBQ	OJEK	bbb	rrr	3	650	1	6	0
23	04-Mar-2016	  22	Blue	w	0	0.9923	K	F	ODKR	NCFU	brb	rbr	3	2000	1	6	0
23	04-Mar-2016	  23	Blue	u	1	0.8960	O	U	OSEK	UMAB	r	b	1	650	1	6	0
23	04-Mar-2016	  24	Blue	j	1	0.4983	C	J	CGUF	JMKH	r	b	1	2000	1	6	0
23	04-Mar-2016	  25	Blue	t	0	0.9727	Y	A	YXZR	AQJD	b	r	1	650	1	6	0
23	04-Mar-2016	  26	Blue	t	1	0.3767	T	B	AGTR	WJBK	rbb	brr	3	2000	1	6	0
23	04-Mar-2016	  27	Blue	w	0	1.3527	D	G	ZQDI	FWGO	brb	rbr	3	650	1	6	0
23	04-Mar-2016	  28	Blue	h	0	1.4087	M	J	NBVM	THUJ	rrbr	bbrb	4	2000	1	6	0
23	04-Mar-2016	  29	Blue	w	0	2.4272	Y	M	YLCN	MIFO	r	b	1	2000	1	6	0
23	04-Mar-2016	  30	Blue	b	1	1.0818	B	H	BUQM	HGRX	b	r	1	2000	1	6	0
23	04-Mar-2016	  31	Blue	c	1	0.9829	C	T	HCRP	GTVQ	bb	rr	2	2000	1	6	0
23	04-Mar-2016	  32	Blue	e	1	1.1235	C	E	HRPC	ONDE	rbrr	brbb	4	650	1	6	0
23	04-Mar-2016	   1	Red	r	0	4.0789	A	J	AOLN	JXYR	b	r	1	650	1	6	0
23	04-Mar-2016	   2	Red	o	1	1.1633	Z	O	ZQXD	OYJM	b	r	1	650	1	6	0
23	04-Mar-2016	   3	Red	o	0	1.3229	D	N	KRSD	WOXN	bbrb	rrbr	4	2000	1	6	0
23	04-Mar-2016	   4	Red	l	0	0.9007	D	W	ILZD	GPQW	rrrb	bbbr	4	2000	1	6	0
23	04-Mar-2016	   5	Red	w	0	3.3208	D	Z	TDGS	KZPA	br	rb	2	650	1	6	0
23	04-Mar-2016	   6	Red	p	1	1.3037	D	P	DXST	PWVZ	b	r	1	2000	1	6	0
23	04-Mar-2016	   7	Red	h	1	1.0464	H	K	EHBA	MKZO	rr	bb	2	650	1	6	0
23	04-Mar-2016	   8	Red	j	0	1.0246	H	M	ZCLH	QTJM	rbrr	brbb	4	2000	1	6	0
23	04-Mar-2016	   9	Red	a	1	1.5446	D	A	DEQY	AHZK	b	r	1	2000	1	6	0
23	04-Mar-2016	  10	Red	n	0	1.1433	A	Z	KAIO	QZCH	rr	bb	2	2000	1	6	0
23	04-Mar-2016	  11	Red	y	1	1.4912	W	Y	WOPS	YKJD	b	r	1	2000	1	6	0
23	04-Mar-2016	  12	Red	c	1	1.2684	J	C	EQJX	UHCS	rbb	brr	3	2000	1	6	0
23	04-Mar-2016	  13	Red	h	1	1.1735	H	M	EHXY	ZMCD	rr	bb	2	2000	1	6	0
23	04-Mar-2016	  14	Red	l	0	2.2800	E	X	YEDQ	LXPI	bb	rr	2	650	1	6	0
23	04-Mar-2016	  15	Red	l	0	1.5006	A	F	NABE	SFCL	rr	bb	2	2000	1	6	0
23	04-Mar-2016	  16	Red	q	0	2.0132	B	M	YJBR	GCMZ	brb	rbr	3	650	1	6	0
23	04-Mar-2016	  17	Red	g	0	0.9903	E	B	ASEZ	UWBY	rbb	brr	3	2000	1	6	0
23	04-Mar-2016	  18	Red	c	0	1.2170	Y	N	IAYW	ZCNV	rbr	brb	3	2000	1	6	0
23	04-Mar-2016	  19	Red	a	0	1.2177	M	E	MOLK	EZAW	b	r	1	650	1	6	0
23	04-Mar-2016	  20	Red	o	0	0.9089	Z	D	BAZN	OQDW	brb	rbr	3	2000	1	6	0
23	04-Mar-2016	  21	Red	w	0	1.8563	F	Z	DFAX	KZGP	rb	br	2	650	1	6	0
23	04-Mar-2016	  22	Red	n	0	0.9655	B	R	ZWXB	NJTR	brbr	rbrb	4	650	1	6	0
23	04-Mar-2016	  23	Red	v	0	0.9560	L	O	AZRL	TYVO	bbbr	rrrb	4	2000	1	6	0
23	04-Mar-2016	  24	Red	o	0	1.1513	X	P	IXWE	BPGY	bb	rr	2	2000	1	6	0
23	04-Mar-2016	  25	Red	d	1	1.2589	D	W	DIOA	WSVM	r	b	1	650	1	6	0
23	04-Mar-2016	  26	Red	j	1	1.3379	J	S	JUVP	SRZB	r	b	1	2000	1	6	0
23	04-Mar-2016	  27	Red	h	1	0.9268	H	F	XGHK	ZBFW	brr	rbb	3	650	1	6	0
23	04-Mar-2016	  28	Red	w	0	2.1329	M	D	CKSM	OHID	rbrb	brbr	4	650	1	6	0
23	04-Mar-2016	  29	Red	y	0	0.7981	O	E	KGOV	YQEM	brb	rbr	3	650	1	6	0
23	04-Mar-2016	  30	Red	g	0	1.0575	N	X	FZKN	GDJX	brbr	rbrb	4	650	1	6	0
23	04-Mar-2016	  31	Red	w	0	0.9154	V	E	QCTV	KUNE	rbbb	brrr	4	650	1	6	0
23	04-Mar-2016	  32	Red	r	0	1.5364	T	S	CWTX	BQSN	rrb	bbr	3	650	1	6	0
23	04-Mar-2016	   1	Blue	k	1	1.0094	K	J	PXAK	EBVJ	brbb	rbrr	4	650	1	6	0
23	04-Mar-2016	   2	Blue	w	0	1.5938	P	X	PHMK	XTWL	b	r	1	2000	1	6	0
23	04-Mar-2016	   3	Blue	a	0	0.3620	P	T	GMLP	OFAT	rrrr	bbbb	4	2000	1	6	0
23	04-Mar-2016	   4	Blue	r	1	0.8643	M	R	WMIU	EROX	br	rb	2	2000	1	6	0
23	04-Mar-2016	   5	Blue	o	0	1.2485	H	X	NOGH	JRMX	bbrb	rrbr	4	650	1	6	0
23	04-Mar-2016	   6	Blue	q	0	1.5297	M	D	TMHO	QDFC	rr	bb	2	2000	1	6	0
23	04-Mar-2016	   7	Blue	o	1	1.5157	O	Y	KUOA	JSYV	brb	rbr	3	2000	1	6	0
23	04-Mar-2016	   8	Blue	w	0	3.4496	Q	Z	QCVY	ZATU	r	b	1	2000	1	6	0
23	04-Mar-2016	   9	Blue	s	1	0.9641	P	S	PQMH	SIYX	r	b	1	650	1	6	0
23	04-Mar-2016	  10	Blue	y	1	1.3487	Q	Y	QTVN	YZUE	r	b	1	650	1	6	0
23	04-Mar-2016	  11	Blue	f	0	0.8192	G	U	XKGS	FRUI	rbb	brr	3	2000	1	6	0
23	04-Mar-2016	  12	Blue	p	1	1.6275	P	B	PSKJ	BAEL	b	r	1	2000	1	6	0
23	04-Mar-2016	  13	Blue	i	1	2.2690	I	L	DIEC	ULNM	bb	rr	2	650	1	6	0
23	04-Mar-2016	  14	Blue	z	1	1.4026	J	Z	UQJF	YVZG	brr	rbb	3	650	1	6	0
23	04-Mar-2016	  15	Blue	k	0	1.3180	V	T	QNVF	ZDTW	rbr	brb	3	650	1	6	0
23	04-Mar-2016	  16	Blue	g	0	0.8650	R	N	GIPR	FCUN	brbr	rbrb	4	2000	1	6	0
23	04-Mar-2016	  17	Blue	f	0	2.6142	C	P	MCWI	YPNA	bb	rr	2	2000	1	6	0
23	04-Mar-2016	  18	Blue	d	1	1.3258	D	F	DWYG	FAOS	b	r	1	2000	1	6	0
23	04-Mar-2016	  19	Blue	a	0	0.7962	G	S	PGFY	ASWB	rb	br	2	650	1	6	0
23	04-Mar-2016	  20	Blue	q	0	2.1229	R	J	XRLB	TJSM	br	rb	2	650	1	6	0
23	04-Mar-2016	  21	Blue	p	0	2.1758	D	F	EODA	HBFV	rrb	bbr	3	2000	1	6	0
23	04-Mar-2016	  22	Blue	i	0	1.4429	A	K	IQRA	HGYK	brrb	rbbr	4	2000	1	6	0
23	04-Mar-2016	  23	Blue	i	0	2.2385	G	Z	SHIG	CPMZ	brbr	rbrb	4	650	1	6	0
23	04-Mar-2016	  24	Blue	a	0	1.2053	D	B	GDEY	ABFK	rr	bb	2	2000	1	6	0
23	04-Mar-2016	  25	Blue	y	1	1.1209	R	Y	LTZR	AIPY	bbrr	rrbb	4	650	1	6	0
23	04-Mar-2016	  26	Blue	j	0	1.1712	D	B	KRYD	XJIB	rrbb	bbrr	4	2000	1	6	0
23	04-Mar-2016	  27	Blue	l	0	4.7072	E	G	EJYN	GOST	b	r	1	650	1	6	0
23	04-Mar-2016	  28	Blue	d	0	1.1941	R	D	WRKO	NDIS	rb	br	2	650	1	6	0
23	04-Mar-2016	  29	Blue	m	0	1.1510	L	Y	NVLF	MQYA	rrr	bbb	3	650	1	6	0
23	04-Mar-2016	  30	Blue	r	0	3.4893	O	N	OBIE	NTQC	b	r	1	650	1	6	0
23	04-Mar-2016	  31	Blue	h	1	1.2289	X	H	TYXZ	GFHJ	rbr	brb	3	2000	1	6	0
23	04-Mar-2016	  32	Blue	a	1	0.9510	L	A	DBLH	QWAC	rrr	bbb	3	650	1	6	0
23	04-Mar-2016	   1	Red	b	0	1.1942	L	I	GOLQ	UKIN	rbr	brb	3	650	1	6	0
23	04-Mar-2016	   2	Red	w	0	4.4993	V	M	VTAZ	MJYO	r	b	1	650	1	6	0
23	04-Mar-2016	   3	Red	t	0	0.8887	Y	F	TYCB	JFOH	rr	bb	2	650	1	6	0
23	04-Mar-2016	   4	Red	z	0	1.1506	E	I	ZWNE	CDGI	rrbb	bbrr	4	650	1	6	0
23	04-Mar-2016	   5	Red	d	0	1.0440	M	B	AEMG	KDBU	bbr	rrb	3	650	1	6	0
23	04-Mar-2016	   6	Red	d	0	0.9443	L	U	QBHL	JADU	brbr	rbrb	4	2000	1	6	0
23	04-Mar-2016	   7	Red	n	1	2.7046	T	N	TLJH	NKPU	b	r	1	650	1	6	0
23	04-Mar-2016	   8	Red	p	0	1.3308	E	N	BSAE	KPWN	rbrb	brbr	4	2000	1	6	0
23	04-Mar-2016	   9	Red	d	0	0.8572	I	Y	DZIP	SCYF	rbr	brb	3	650	1	6	0
23	04-Mar-2016	  10	Red	m	1	1.0627	M	T	WMBJ	PTFN	rr	bb	2	650	1	6	0
23	04-Mar-2016	  11	Red	q	1	0.9819	Q	B	YNQI	CJBG	brr	rbb	3	650	1	6	0
23	04-Mar-2016	  12	Red	z	1	1.1866	H	Z	XNHB	RIZS	rbb	brr	3	2000	1	6	0
23	04-Mar-2016	  13	Red	d	1	2.3716	D	B	DKQI	BANG	r	b	1	650	1	6	0
23	04-Mar-2016	  14	Red	s	0	0.8869	U	H	TXAU	LISH	bbbr	rrrb	4	650	1	6	0
23	04-Mar-2016	  15	Red	j	1	1.2273	J	V	JRZU	VNTY	r	b	1	2000	1	6	0
23	04-Mar-2016	  16	Red	e	0	0.8551	X	T	EPXV	CITL	rrr	bbb	3	2000	1	6	0
23	04-Mar-2016	  17	Red	b	0	1.1490	Y	M	UYZA	GMHL	rb	br	2	2000	1	6	0
23	04-Mar-2016	  18	Red	e	0	1.9517	X	Q	XJMP	QKLC	r	b	1	2000	1	6	0
23	04-Mar-2016	  19	Red	j	0	0.8657	G	Z	RJMG	UOYZ	rrbr	bbrb	4	650	1	6	0
23	04-Mar-2016	  20	Red	c	1	6.2771	C	A	HUEC	NIJA	rrrr	bbbb	4	2000	1	6	0
23	04-Mar-2016	  21	Red	c	0	1.3905	E	K	NFEM	SCKY	rbr	brb	3	2000	1	6	0
23	04-Mar-2016	  22	Red	j	1	0.8089	W	J	ZWQT	IJAN	bb	rr	2	650	1	6	0
23	04-Mar-2016	  23	Red	w	0	1.9366	Z	A	ZRQS	ANUC	r	b	1	650	1	6	0
23	04-Mar-2016	  24	Red	j	0	0.9785	I	H	BQIC	JGHL	bbb	rrr	3	2000	1	6	0
23	04-Mar-2016	  25	Red	q	1	0.9969	Q	L	MQYF	TLHE	rr	bb	2	2000	1	6	0
23	04-Mar-2016	  26	Red	m	0	0.9031	P	B	XPIM	QBTU	br	rb	2	2000	1	6	0
23	04-Mar-2016	  27	Red	w	0	2.5246	U	J	YWRU	VDKJ	rrbr	bbrb	4	650	1	6	0
23	04-Mar-2016	  28	Red	j	0	1.9768	L	D	LCEK	DIQJ	r	b	1	2000	1	6	0
23	04-Mar-2016	  29	Red	f	1	0.8622	N	F	HNEA	IFSD	bb	rr	2	650	1	6	0
23	04-Mar-2016	  30	Red	s	0	0.8170	K	M	JSIK	PDEM	rrbr	bbrb	4	2000	1	6	0
23	04-Mar-2016	  31	Red	z	0	1.1600	F	T	RFUY	ZTCQ	br	rb	2	2000	1	6	0
23	04-Mar-2016	  32	Red	e	1	1.2189	E	O	EWYZ	OUSJ	r	b	1	2000	1	6	0
21	04-Mar-2016	   1	Blue	t	1	1.0246	R	T	nnnR	nnnT	rbbr	brrb	4	2000	1	6	1
21	04-Mar-2016	   2	Blue	l	1	1.0395	I	L	I	L	r	b	1	2000	1	6	1
21	04-Mar-2016	   3	Blue	s	1	0.9195	Y	S	nY	nS	rr	bb	2	2000	1	6	1
21	04-Mar-2016	   4	Blue	a	1	1.1543	A	D	nA	nD	bb	rr	2	650	1	6	1
21	04-Mar-2016	   5	Blue	n	1	0.9567	P	N	P	N	r	b	1	2000	1	6	1
21	04-Mar-2016	   6	Blue	e	1	0.9141	L	E	nnL	nnE	brr	rbb	3	2000	1	6	1
21	04-Mar-2016	   7	Blue	e	1	1.0487	E	V	nnnE	nnnV	rrrb	bbbr	4	650	1	6	1
21	04-Mar-2016	   8	Blue	j	1	1.0241	J	I	nnJ	nnI	bbb	rrr	3	650	1	6	1
21	04-Mar-2016	   9	Blue	d	1	1.0075	D	Q	D	Q	b	r	1	650	1	6	1
21	04-Mar-2016	  10	Blue	r	0	1.4885	X	Q	nX	nQ	rb	br	2	650	1	6	1
21	04-Mar-2016	  11	Blue	r	1	1.1465	R	L	nnR	nnL	brb	rbr	3	2000	1	6	1
21	04-Mar-2016	  12	Blue	l	1	1.1326	C	L	nC	nL	rr	bb	2	650	1	6	1
21	04-Mar-2016	  13	Blue	y	1	1.0822	Y	B	nY	nB	bb	rr	2	650	1	6	1
21	04-Mar-2016	  14	Blue	l	1	1.1758	L	C	nnL	nnC	rrb	bbr	3	650	1	6	1
21	04-Mar-2016	  15	Blue	a	1	0.8618	M	A	nnM	nnA	bbr	rrb	3	2000	1	6	1
21	04-Mar-2016	  16	Blue	a	1	1.0614	A	W	nnnA	nnnW	brrb	rbbr	4	650	1	6	1
21	04-Mar-2016	  17	Blue	f	1	0.8844	F	Y	F	Y	b	r	1	650	1	6	1
21	04-Mar-2016	  18	Blue	o	0	1.4081	O	X	O	X	r	b	1	650	1	6	1
21	04-Mar-2016	  19	Blue	p	1	1.0014	U	P	U	P	r	b	1	2000	1	6	1
21	04-Mar-2016	  20	Blue	i	1	1.2137	I	U	nnnI	nnnU	brbb	rbrr	4	2000	1	6	1
21	04-Mar-2016	  21	Blue	d	1	1.0665	L	D	nnL	nnD	rrr	bbb	3	2000	1	6	1
21	04-Mar-2016	  22	Blue	o	1	1.1866	Z	O	nnZ	nnO	rrr	bbb	3	650	1	6	1
21	04-Mar-2016	  23	Blue	a	1	0.9074	L	A	L	A	r	b	1	2000	1	6	1
21	04-Mar-2016	  24	Blue	l	1	0.9677	L	Q	nL	nQ	bb	rr	2	2000	1	6	1
21	04-Mar-2016	  25	Blue	w	1	1.0629	D	W	nnnD	nnnW	brbr	rbrb	4	2000	1	6	1
21	04-Mar-2016	  26	Blue	r	0	0.8091	Y	G	nnnY	nnnG	rrrr	bbbb	4	2000	1	6	1
21	04-Mar-2016	  27	Blue	a	1	1.0825	A	P	nA	nP	bb	rr	2	2000	1	6	1
21	04-Mar-2016	  28	Blue	r	0	0.9058	O	Q	nO	nQ	rr	bb	2	2000	1	6	1
21	04-Mar-2016	  29	Blue	q	1	1.2067	Q	D	nnnQ	nnnD	rrrb	bbbr	4	650	1	6	1
21	04-Mar-2016	  30	Blue	b	0	0.8596	E	N	nnnE	nnnN	brrb	rbbr	4	650	1	6	1
21	04-Mar-2016	  31	Blue	i	1	0.9032	I	O	I	O	b	r	1	650	1	6	1
21	04-Mar-2016	  32	Blue	y	1	0.9964	J	Y	nnJ	nnY	rrr	bbb	3	650	1	6	1
21	04-Mar-2016	   1	Red	r	0	1.0866	X	L	nnX	nnL	rrr	bbb	3	650	1	6	1
21	04-Mar-2016	   2	Red	x	1	1.2150	X	F	nnX	nnF	rbr	brb	3	2000	1	6	1
21	04-Mar-2016	   3	Red	b	1	1.0253	B	N	nnB	nnN	rrr	bbb	3	650	1	6	1
21	04-Mar-2016	   4	Red	i	1	1.0127	I	Q	nnI	nnQ	rrr	bbb	3	2000	1	6	1
21	04-Mar-2016	   5	Red	g	1	1.0702	G	K	nnnG	nnnK	rrbr	bbrb	4	650	1	6	1
21	04-Mar-2016	   6	Red	o	1	1.1606	V	O	nnnV	nnnO	bbrb	rrbr	4	650	1	6	1
21	04-Mar-2016	   7	Red	e	1	1.0375	E	Y	nnE	nnY	bbr	rrb	3	2000	1	6	1
21	04-Mar-2016	   8	Red	o	1	1.0843	O	R	nO	nR	br	rb	2	650	1	6	1
21	04-Mar-2016	   9	Red	i	1	0.9553	L	I	nnL	nnI	bbb	rrr	3	650	1	6	1
21	04-Mar-2016	  10	Red	a	1	0.8934	A	U	A	U	r	b	1	650	1	6	1
21	04-Mar-2016	  11	Red	b	0	0.9214	K	O	nK	nO	br	rb	2	2000	1	6	1
21	04-Mar-2016	  12	Red	p	1	1.0217	H	P	nnH	nnP	rbb	brr	3	650	1	6	1
21	04-Mar-2016	  13	Red	c	1	0.9223	D	C	nnnD	nnnC	rrrb	bbbr	4	2000	1	6	1
21	04-Mar-2016	  14	Red	s	1	1.0451	Z	S	nZ	nS	rb	br	2	650	1	6	1
21	04-Mar-2016	  15	Red	q	0	2.0846	H	W	nH	nW	bb	rr	2	650	1	6	1
21	04-Mar-2016	  16	Red	j	1	1.0700	K	J	K	J	b	r	1	650	1	6	1
21	04-Mar-2016	  17	Red	w	0	1.1849	H	B	nnnH	nnnB	rrrb	bbbr	4	2000	1	6	1
21	04-Mar-2016	  18	Red	l	1	0.9489	L	B	nL	nB	rr	bb	2	2000	1	6	1
21	04-Mar-2016	  19	Red	f	1	0.7039	F	I	F	I	r	b	1	2000	1	6	1
21	04-Mar-2016	  20	Red	z	1	0.9745	Z	D	nnnZ	nnnD	bbrr	rrbb	4	2000	1	6	1
21	04-Mar-2016	  21	Red	y	0	2.2802	Z	H	Z	H	b	r	1	2000	1	6	1
21	04-Mar-2016	  22	Red	d	1	1.1407	D	A	nD	nA	rr	bb	2	2000	1	6	1
21	04-Mar-2016	  23	Red	u	1	1.3145	C	U	nnnC	nnnU	brrb	rbbr	4	650	1	6	1
21	04-Mar-2016	  24	Red	n	1	0.9361	N	Z	N	Z	r	b	1	2000	1	6	1
21	04-Mar-2016	  25	Red	c	0	1.5469	V	S	nV	nS	rb	br	2	650	1	6	1
21	04-Mar-2016	  26	Red	b	0	1.1290	Q	B	Q	B	r	b	1	650	1	6	1
21	04-Mar-2016	  27	Red	k	1	1.0483	K	Y	nnnK	nnnY	rrbr	bbrb	4	2000	1	6	1
21	04-Mar-2016	  28	Red	f	1	1.0716	F	R	F	R	r	b	1	2000	1	6	1
21	04-Mar-2016	  29	Red	k	0	1.3263	K	W	nK	nW	bb	rr	2	2000	1	6	1
21	04-Mar-2016	  30	Red	z	1	1.2295	F	Z	nnF	nnZ	brb	rbr	3	2000	1	6	1
21	04-Mar-2016	  31	Red	a	1	1.1187	A	M	A	M	r	b	1	650	1	6	1
21	04-Mar-2016	  32	Red	a	1	1.1014	A	B	nnnA	nnnB	brrr	rbbb	4	650	1	6	1
21	04-Mar-2016	   1	Blue	f	0	1.1781	F	X	F	X	r	b	1	2000	1	6	1
21	04-Mar-2016	   2	Blue	x	1	9.3161	X	Q	X	Q	b	r	1	2000	1	6	1
21	04-Mar-2016	   3	Blue	f	0	1.7538	O	F	O	F	b	r	1	2000	1	6	1
21	04-Mar-2016	   4	Blue	l	1	1.0486	Q	L	nQ	nL	br	rb	2	650	1	6	1
21	04-Mar-2016	   5	Blue	j	1	0.9935	P	J	nnP	nnJ	rbr	brb	3	2000	1	6	1
21	04-Mar-2016	   6	Blue	w	1	1.1364	W	Q	W	Q	b	r	1	650	1	6	1
21	04-Mar-2016	   7	Blue	b	0	0.9604	K	W	nnK	nnW	rbr	brb	3	2000	1	6	1
21	04-Mar-2016	   8	Blue	l	1	1.2115	L	T	nL	nT	rb	br	2	2000	1	6	1
21	04-Mar-2016	   9	Blue	j	0	1.1256	J	U	nnJ	nnU	brr	rbb	3	650	1	6	1
21	04-Mar-2016	  10	Blue	p	1	1.1530	P	I	nP	nI	bb	rr	2	650	1	6	1
21	04-Mar-2016	  11	Blue	a	1	0.9155	A	W	A	W	b	r	1	650	1	6	1
21	04-Mar-2016	  12	Blue	o	1	1.0567	O	F	nnO	nnF	rbb	brr	3	650	1	6	1
21	04-Mar-2016	  13	Blue	c	1	1.0008	Z	C	nZ	nC	br	rb	2	2000	1	6	1
21	04-Mar-2016	  14	Blue	y	1	0.9282	Y	C	Y	C	b	r	1	2000	1	6	1
21	04-Mar-2016	  15	Blue	t	1	1.0930	T	C	nT	nC	bb	rr	2	2000	1	6	1
21	04-Mar-2016	  16	Blue	b	1	1.0845	J	B	nnJ	nnB	brr	rbb	3	2000	1	6	1
21	04-Mar-2016	  17	Blue	t	0	2.6904	R	L	R	L	r	b	1	650	1	6	1
21	04-Mar-2016	  18	Blue	n	1	0.9221	N	G	nnN	nnG	bbb	rrr	3	2000	1	6	1
21	04-Mar-2016	  19	Blue	r	1	1.0570	R	M	nnnR	nnnM	rrrb	bbbr	4	2000	1	6	1
21	04-Mar-2016	  20	Blue	z	1	0.9459	Z	F	nnnZ	nnnF	bbrb	rrbr	4	650	1	6	1
21	04-Mar-2016	  21	Blue	i	1	1.0377	I	D	nI	nD	bb	rr	2	650	1	6	1
21	04-Mar-2016	  22	Blue	w	0	0.9268	R	Q	nnnR	nnnQ	rbrr	brbb	4	650	1	6	1
21	04-Mar-2016	  23	Blue	i	1	0.8139	O	I	nnnO	nnnI	brbr	rbrb	4	2000	1	6	1
21	04-Mar-2016	  24	Blue	r	1	1.5209	R	Z	nnnR	nnnZ	rbbb	brrr	4	650	1	6	1
21	04-Mar-2016	  25	Blue	n	1	0.8030	N	K	nnnN	nnnK	rrrb	bbbr	4	2000	1	6	1
21	04-Mar-2016	  26	Blue	l	1	1.3881	L	S	nL	nS	rb	br	2	2000	1	6	1
21	04-Mar-2016	  27	Blue	o	0	1.2491	Q	B	nnQ	nnB	rbb	brr	3	650	1	6	1
21	04-Mar-2016	  28	Blue	i	1	1.3871	I	C	nnnI	nnnC	rrrb	bbbr	4	650	1	6	1
21	04-Mar-2016	  29	Blue	a	1	0.3547	A	W	nnnA	nnnW	rbbb	brrr	4	2000	1	6	1
21	04-Mar-2016	  30	Blue	l	1	1.0569	R	L	R	L	r	b	1	650	1	6	1
21	04-Mar-2016	  31	Blue	l	1	1.4157	L	B	nL	nB	bb	rr	2	650	1	6	1
21	04-Mar-2016	  32	Blue	e	1	0.9873	S	E	nnS	nnE	bbr	rrb	3	650	1	6	1
21	04-Mar-2016	   1	Red	l	1	0.9878	T	L	nT	nL	rb	br	2	2000	1	6	1
21	04-Mar-2016	   2	Red	p	1	1.2800	P	B	nnnP	nnnB	brbr	rbrb	4	650	1	6	1
21	04-Mar-2016	   3	Red	e	1	0.9910	E	V	E	V	r	b	1	2000	1	6	1
21	04-Mar-2016	   4	Red	q	0	1.3934	I	P	nnI	nnP	rrb	bbr	3	650	1	6	1
21	04-Mar-2016	   5	Red	y	1	1.1659	Y	H	nnnY	nnnH	bbrr	rrbb	4	650	1	6	1
21	04-Mar-2016	   6	Red	r	0	1.9625	A	F	nA	nF	rr	bb	2	2000	1	6	1
21	04-Mar-2016	   7	Red	e	1	0.9529	E	S	nE	nS	rr	bb	2	650	1	6	1
21	04-Mar-2016	   8	Red	y	0	1.0826	V	Q	V	Q	r	b	1	650	1	6	1
21	04-Mar-2016	   9	Red	j	1	0.9480	C	J	nnC	nnJ	rrb	bbr	3	2000	1	6	1
21	04-Mar-2016	  10	Red	m	1	0.5631	J	M	nnnJ	nnnM	bbrb	rrbr	4	2000	1	6	1
21	04-Mar-2016	  11	Red	j	0	1.7871	C	Q	nC	nQ	br	rb	2	650	1	6	1
21	04-Mar-2016	  12	Red	k	1	0.9760	K	D	nnK	nnD	rrr	bbb	3	650	1	6	1
21	04-Mar-2016	  13	Red	d	1	0.9835	D	Q	nnnD	nnnQ	rrbr	bbrb	4	2000	1	6	1
21	04-Mar-2016	  14	Red	e	1	1.1916	Q	E	Q	E	b	r	1	650	1	6	1
21	04-Mar-2016	  15	Red	s	1	0.9865	E	S	nnE	nnS	rrb	bbr	3	650	1	6	1
21	04-Mar-2016	  16	Red	s	0	1.9163	O	R	nO	nR	rb	br	2	2000	1	6	1
21	04-Mar-2016	  17	Red	i	1	1.0316	I	K	nnI	nnK	bbr	rrb	3	2000	1	6	1
21	04-Mar-2016	  18	Red	y	1	0.9679	Y	I	nY	nI	rr	bb	2	650	1	6	1
21	04-Mar-2016	  19	Red	n	0	1.1444	B	A	B	A	r	b	1	650	1	6	1
21	04-Mar-2016	  20	Red	y	1	1.0600	Y	T	Y	T	r	b	1	2000	1	6	1
21	04-Mar-2016	  21	Red	z	1	0.8613	B	Z	nnB	nnZ	rrb	bbr	3	2000	1	6	1
21	04-Mar-2016	  22	Red	q	1	1.0184	F	Q	F	Q	b	r	1	2000	1	6	1
21	04-Mar-2016	  23	Red	y	1	0.9345	R	Y	nnnR	nnnY	bbbb	rrrr	4	2000	1	6	1
21	04-Mar-2016	  24	Red	j	1	1.0824	F	J	nF	nJ	bb	rr	2	650	1	6	1
21	04-Mar-2016	  25	Red	n	1	1.1517	Q	N	Q	N	b	r	1	2000	1	6	1
21	04-Mar-2016	  26	Red	r	0	1.0529	U	Y	nnnU	nnnY	bbbr	rrrb	4	650	1	6	1
21	04-Mar-2016	  27	Red	k	1	1.1838	K	I	nnnK	nnnI	rbrr	brbb	4	650	1	6	1
21	04-Mar-2016	  28	Red	v	1	1.0661	M	V	nM	nV	bb	rr	2	2000	1	6	1
21	04-Mar-2016	  29	Red	l	1	0.9012	L	M	nnnL	nnnM	rrrr	bbbb	4	2000	1	6	1
21	04-Mar-2016	  30	Red	s	1	1.1864	S	J	nnS	nnJ	rbr	brb	3	650	1	6	1
21	04-Mar-2016	  31	Red	e	1	1.6296	E	X	E	X	r	b	1	650	1	6	1
21	04-Mar-2016	  32	Red	s	1	0.9133	R	S	nnR	nnS	rbb	brr	3	2000	1	6	1
21	04-Mar-2016	   1	Blue	r	0	1.2997	U	W	UXKJ	WQLD	b	r	1	650	1	6	0
21	04-Mar-2016	   2	Blue	m	0	1.2661	H	J	LHEG	MJSP	rr	bb	2	2000	1	6	0
21	04-Mar-2016	   3	Blue	d	1	0.9614	Q	D	QLPX	DRWZ	r	b	1	2000	1	6	0
21	04-Mar-2016	   4	Blue	m	1	0.8662	Z	M	ZWNH	MPTV	r	b	1	2000	1	6	0
21	04-Mar-2016	   5	Blue	y	0	1.0163	Y	N	YLVZ	NOUC	r	b	1	2000	1	6	0
21	04-Mar-2016	   6	Blue	z	0	1.2055	H	J	WUZH	ICKJ	brbb	rbrr	4	2000	1	6	0
21	04-Mar-2016	   7	Blue	y	0	1.0588	K	E	DRUK	YLIE	rbbb	brrr	4	2000	1	6	0
21	04-Mar-2016	   8	Blue	j	0	1.0215	U	O	PYNU	JEMO	rrrr	bbbb	4	2000	1	6	0
21	04-Mar-2016	   9	Blue	i	0	1.2221	E	K	SEHQ	IKYJ	rb	br	2	2000	1	6	0
21	04-Mar-2016	  10	Blue	j	1	1.4559	N	J	HWNZ	SQJT	rbr	brb	3	650	1	6	0
21	04-Mar-2016	  11	Blue	j	0	1.8153	R	H	RTLF	HBQM	b	r	1	650	1	6	0
21	04-Mar-2016	  12	Blue	h	0	1.4289	V	U	ZVFT	SUAK	rr	bb	2	650	1	6	0
21	04-Mar-2016	  13	Blue	t	1	1.0095	T	Q	DHTZ	EBQJ	rrb	bbr	3	2000	1	6	0
21	04-Mar-2016	  14	Blue	q	0	1.4416	N	D	WJNO	XSDI	brb	rbr	3	650	1	6	0
21	04-Mar-2016	  15	Blue	m	0	1.2107	M	Z	TMUI	KZDB	br	rb	2	650	1	6	0
21	04-Mar-2016	  16	Blue	s	0	1.5730	P	W	PSIK	WHMF	b	r	1	2000	1	6	0
21	04-Mar-2016	  17	Blue	p	1	1.2359	P	I	ZBPC	DQIJ	brb	rbr	3	2000	1	6	0
21	04-Mar-2016	  18	Blue	t	1	1.0703	T	G	RBTE	QDGJ	rrb	bbr	3	2000	1	6	0
21	04-Mar-2016	  19	Blue	r	1	1.1442	U	R	NAUF	JBRE	brr	rbb	3	2000	1	6	0
21	04-Mar-2016	  20	Blue	l	0	1.0602	Q	I	LEQZ	CDIU	bbb	rrr	3	650	1	6	0
21	04-Mar-2016	  21	Blue	w	0	1.1329	H	D	EHZR	BDUC	br	rb	2	2000	1	6	0
21	04-Mar-2016	  22	Blue	y	0	1.0727	H	Q	YHWO	TQPE	bb	rr	2	650	1	6	0
21	04-Mar-2016	  23	Blue	t	0	1.1697	H	K	TUPH	MJOK	brrr	rbbb	4	650	1	6	0
21	04-Mar-2016	  24	Blue	q	0	1.3333	Y	B	DGYN	MEBU	rrr	bbb	3	650	1	6	0
21	04-Mar-2016	  25	Blue	z	0	1.0537	Y	K	GMZY	JFSK	bbbr	rrrb	4	650	1	6	0
21	04-Mar-2016	  26	Blue	a	1	1.2508	E	A	EKMQ	ATFZ	r	b	1	650	1	6	0
21	04-Mar-2016	  27	Blue	w	0	1.7909	X	B	FKAX	LYJB	bbbr	rrrb	4	650	1	6	0
21	04-Mar-2016	  28	Blue	q	0	1.4653	U	M	ULSC	MFQW	r	b	1	650	1	6	0
21	04-Mar-2016	  29	Blue	w	0	1.2027	I	T	OICY	XTKW	rb	br	2	650	1	6	0
21	04-Mar-2016	  30	Blue	z	0	1.2813	D	U	ZXBD	QTWU	rbbr	brrb	4	2000	1	6	0
21	04-Mar-2016	  31	Blue	o	0	1.1854	L	E	BLQA	OEUM	rr	bb	2	2000	1	6	0
21	04-Mar-2016	  32	Blue	i	0	1.2313	S	U	XDIS	TLAU	rbbb	brrr	4	650	1	6	0
21	04-Mar-2016	   1	Red	c	0	0.9407	S	Y	QCNS	JZMY	rrbb	bbrr	4	650	1	6	0
21	04-Mar-2016	   2	Red	i	1	0.9836	B	I	JBAE	VIRN	rb	br	2	2000	1	6	0
21	04-Mar-2016	   3	Red	y	0	1.0268	X	J	HVXE	AYJN	bbr	rrb	3	650	1	6	0
21	04-Mar-2016	   4	Red	k	0	1.1551	N	T	KNZY	QTHO	rr	bb	2	2000	1	6	0
21	04-Mar-2016	   5	Red	z	0	0.9290	Y	S	UNPY	ZOMS	bbrr	rrbb	4	650	1	6	0
21	04-Mar-2016	   6	Red	j	0	1.2517	H	X	JHGK	LXIS	rb	br	2	650	1	6	0
21	04-Mar-2016	   7	Red	n	1	1.5948	Y	N	YQDW	NPGJ	b	r	1	650	1	6	0
21	04-Mar-2016	   8	Red	u	1	1.2173	U	S	XKUE	ZRSY	brr	rbb	3	650	1	6	0
21	04-Mar-2016	   9	Red	u	0	1.5846	R	P	RAZV	PUKQ	b	r	1	650	1	6	0
21	04-Mar-2016	  10	Red	z	0	1.3558	U	K	UQEV	KYOD	b	r	1	2000	1	6	0
21	04-Mar-2016	  11	Red	z	0	1.5365	M	K	ZMSF	LKCH	rr	bb	2	650	1	6	0
21	04-Mar-2016	  12	Red	n	0	1.3213	C	Q	JSZC	NMTQ	brrb	rbbr	4	650	1	6	0
21	04-Mar-2016	  13	Red	j	0	1.1815	P	S	ZPXB	JSEM	bb	rr	2	650	1	6	0
21	04-Mar-2016	  14	Red	n	0	1.4314	D	R	DTZM	RNGU	b	r	1	2000	1	6	0
21	04-Mar-2016	  15	Red	j	0	1.2210	D	K	QLDH	JXKN	bbb	rrr	3	2000	1	6	0
21	04-Mar-2016	  16	Red	t	1	1.2185	C	T	SKLC	YJDT	brbb	rbrr	4	2000	1	6	0
21	04-Mar-2016	  17	Red	s	0	1.1150	D	E	SDAK	GEUR	rb	br	2	2000	1	6	0
21	04-Mar-2016	  18	Red	d	0	1.2411	W	A	DKWL	XVAY	rbr	brb	3	650	1	6	0
21	04-Mar-2016	  19	Red	s	1	1.3052	M	S	MPYB	SRIQ	b	r	1	650	1	6	0
21	04-Mar-2016	  20	Red	o	0	1.1604	Y	H	CWYP	OQHB	bbb	rrr	3	650	1	6	0
21	04-Mar-2016	  21	Red	e	0	2.0596	I	X	IEGJ	XKOP	b	r	1	2000	1	6	0
21	04-Mar-2016	  22	Red	i	0	1.2405	U	T	AMUN	KITH	bbb	rrr	3	2000	1	6	0
21	04-Mar-2016	  23	Red	p	1	1.5524	P	A	PIOJ	AXMC	r	b	1	2000	1	6	0
21	04-Mar-2016	  24	Red	i	0	1.0731	Q	A	SIQL	CFAG	rrb	bbr	3	2000	1	6	0
21	04-Mar-2016	  25	Red	e	0	1.0790	Q	A	XQPW	IAOF	br	rb	2	650	1	6	0
21	04-Mar-2016	  26	Red	c	0	1.1446	O	J	KHCO	GRDJ	rbrb	brbr	4	2000	1	6	0
21	04-Mar-2016	  27	Red	l	1	1.0747	L	X	LVDW	XPKZ	r	b	1	650	1	6	0
21	04-Mar-2016	  28	Red	r	1	1.0833	R	P	ORKF	XPLA	br	rb	2	2000	1	6	0
21	04-Mar-2016	  29	Red	r	0	1.5890	E	X	TMWE	KPNX	brbb	rbrr	4	2000	1	6	0
21	04-Mar-2016	  30	Red	l	0	1.2698	I	M	VWLI	GYTM	rrbb	bbrr	4	2000	1	6	0
21	04-Mar-2016	  31	Red	b	0	1.0304	G	O	CLGB	TQOX	rbr	brb	3	2000	1	6	0
21	04-Mar-2016	  32	Red	s	0	1.1206	O	X	IHMO	SDCX	brrb	rbbr	4	650	1	6	0
21	04-Mar-2016	   1	Blue	b	1	1.1019	B	K	BGWJ	KANZ	b	r	1	650	1	6	0
21	04-Mar-2016	   2	Blue	e	1	1.0591	E	C	BEQK	WCHY	rb	br	2	2000	1	6	0
21	04-Mar-2016	   3	Blue	b	0	1.1650	E	L	WIME	GRKL	rbbr	brrb	4	650	1	6	0
21	04-Mar-2016	   4	Blue	d	1	1.0036	D	V	NKID	BOHV	rrrb	bbbr	4	650	1	6	0
21	04-Mar-2016	   5	Blue	p	0	1.3156	X	T	PXUW	KTBN	bb	rr	2	2000	1	6	0
21	04-Mar-2016	   6	Blue	l	0	0.9979	Y	C	MBHY	IFLC	brrb	rbbr	4	2000	1	6	0
21	04-Mar-2016	   7	Blue	w	0	1.5501	J	Z	OJXR	KZVH	br	rb	2	650	1	6	0
21	04-Mar-2016	   8	Blue	p	1	1.5013	P	H	YPDC	EHFA	rb	br	2	650	1	6	0
21	04-Mar-2016	   9	Blue	j	0	0.9347	H	G	JCBH	FOTG	brbr	rbrb	4	650	1	6	0
21	04-Mar-2016	  10	Blue	r	0	1.7206	V	G	VBAP	GWXU	r	b	1	650	1	6	0
21	04-Mar-2016	  11	Blue	b	0	1.5769	Y	C	ZYQT	XCSU	rb	br	2	650	1	6	0
21	04-Mar-2016	  12	Blue	s	0	1.2068	P	G	QFPI	SLGE	rrb	bbr	3	2000	1	6	0
21	04-Mar-2016	  13	Blue	j	0	1.2590	U	A	WJUR	NKAP	bbr	rrb	3	650	1	6	0
21	04-Mar-2016	  14	Blue	r	0	1.4674	D	Q	RBDS	WVQF	brr	rbb	3	650	1	6	0
21	04-Mar-2016	  15	Blue	l	0	1.1355	N	B	RUHN	LXYB	rrrb	bbbr	4	2000	1	6	0
21	04-Mar-2016	  16	Blue	i	0	1.1750	K	N	FPKR	OINT	brr	rbb	3	2000	1	6	0
21	04-Mar-2016	  17	Blue	w	0	1.6881	X	L	XBUP	LZER	r	b	1	2000	1	6	0
21	04-Mar-2016	  18	Blue	p	0	1.1384	G	T	JYGC	SPTO	rrb	bbr	3	650	1	6	0
21	04-Mar-2016	  19	Blue	v	0	1.2969	N	U	BAVN	LQEU	brbr	rbrb	4	650	1	6	0
21	04-Mar-2016	  20	Blue	r	1	1.4064	G	R	GTOH	RSIM	r	b	1	650	1	6	0
21	04-Mar-2016	  21	Blue	e	1	0.9913	X	E	XPGM	ENWS	r	b	1	2000	1	6	0
21	04-Mar-2016	  22	Blue	f	1	1.1442	P	F	PBHN	FAJS	r	b	1	2000	1	6	0
21	04-Mar-2016	  23	Blue	t	0	1.1420	M	R	TYMF	AVRB	bbb	rrr	3	650	1	6	0
21	04-Mar-2016	  24	Blue	i	1	1.3450	I	Q	IESK	QAGL	b	r	1	650	1	6	0
21	04-Mar-2016	  25	Blue	y	1	1.3200	Y	U	QGYR	JLUI	brb	rbr	3	2000	1	6	0
21	04-Mar-2016	  26	Blue	k	0	1.0794	Q	S	GKQN	RPSO	rbb	brr	3	2000	1	6	0
21	04-Mar-2016	  27	Blue	h	0	1.2466	N	E	HNSV	KECG	br	rb	2	2000	1	6	0
21	04-Mar-2016	  28	Blue	i	0	1.4070	I	K	HIMY	OKEC	br	rb	2	2000	1	6	0
21	04-Mar-2016	  29	Blue	e	0	1.0932	Q	F	SKUQ	RCEF	brrb	rbbr	4	2000	1	6	0
21	04-Mar-2016	  30	Blue	o	1	1.1390	O	F	OLVC	FKUG	b	r	1	2000	1	6	0
21	04-Mar-2016	  31	Blue	j	1	1.1268	J	H	CJUL	THIZ	bb	rr	2	650	1	6	0
21	04-Mar-2016	  32	Blue	s	0	1.1198	M	C	NKEM	SJXC	rrbr	bbrb	4	2000	1	6	0
21	04-Mar-2016	   1	Red	z	0	1.2506	H	W	AHNL	MWEG	rr	bb	2	2000	1	6	0
21	04-Mar-2016	   2	Red	c	1	1.2653	Y	C	WYNI	KCVJ	rb	br	2	650	1	6	0
21	04-Mar-2016	   3	Red	i	0	1.1657	M	L	NIYM	XJPL	rrbr	bbrb	4	2000	1	6	0
21	04-Mar-2016	   4	Red	r	1	1.2187	R	S	TRPK	ASHJ	br	rb	2	2000	1	6	0
21	04-Mar-2016	   5	Red	d	0	0.9806	R	L	DNRG	VSLC	rbb	brr	3	650	1	6	0
21	04-Mar-2016	   6	Red	l	0	1.9334	L	T	LUDW	TCHM	b	r	1	2000	1	6	0
21	04-Mar-2016	   7	Red	r	0	1.2611	R	C	REUZ	CNXM	b	r	1	2000	1	6	0
21	04-Mar-2016	   8	Red	h	0	0.9518	P	N	HGXP	SURN	rbrb	brbr	4	2000	1	6	0
21	04-Mar-2016	   9	Red	c	0	1.2223	P	Q	CDPR	NVQZ	rbr	brb	3	2000	1	6	0
21	04-Mar-2016	  10	Red	w	1	1.9431	W	X	WVNC	XBYK	r	b	1	2000	1	6	0
21	04-Mar-2016	  11	Red	e	0	1.3191	H	Q	EFHW	UKQD	rrr	bbb	3	650	1	6	0
21	04-Mar-2016	  12	Red	u	0	1.3847	L	K	PXUL	QWSK	bbrr	rrbb	4	650	1	6	0
21	04-Mar-2016	  13	Red	i	0	1.0584	U	D	BUNX	IDOY	br	rb	2	650	1	6	0
21	04-Mar-2016	  14	Red	i	0	1.1718	T	Z	DEOT	IKXZ	brbr	rbrb	4	650	1	6	0
21	04-Mar-2016	  15	Red	w	0	1.2555	M	R	ZMDP	LRNA	rb	br	2	2000	1	6	0
21	04-Mar-2016	  16	Red	r	0	1.6377	K	B	KGCZ	BFSN	b	r	1	650	1	6	0
21	04-Mar-2016	  17	Red	p	0	1.2174	R	K	CSRY	MPKE	bbb	rrr	3	650	1	6	0
21	04-Mar-2016	  18	Red	q	0	1.3799	M	T	QMDA	CTEO	br	rb	2	2000	1	6	0
21	04-Mar-2016	  19	Red	g	1	1.3555	X	G	NBAX	DOTG	brbb	rbrr	4	2000	1	6	0
21	04-Mar-2016	  20	Red	j	1	1.3669	J	Q	JSZH	QTWN	r	b	1	650	1	6	0
21	04-Mar-2016	  21	Red	i	0	1.1904	U	P	BLZU	QIJP	bbbr	rrrb	4	650	1	6	0
21	04-Mar-2016	  22	Red	a	1	1.1225	A	G	HBAC	MQGX	rbr	brb	3	2000	1	6	0
21	04-Mar-2016	  23	Red	w	0	1.5752	B	Z	WBQN	TZDV	rb	br	2	650	1	6	0
21	04-Mar-2016	  24	Red	a	0	1.1121	Q	K	FVSQ	AIHK	brbr	rbrb	4	2000	1	6	0
21	04-Mar-2016	  25	Red	w	0	2.0284	V	Q	VECL	QNGB	r	b	1	650	1	6	0
21	04-Mar-2016	  26	Red	s	0	1.2190	Y	D	VIJY	UESD	brbb	rbrr	4	650	1	6	0
21	04-Mar-2016	  27	Red	r	0	1.6273	R	V	IRZP	JVQO	rb	br	2	650	1	6	0
21	04-Mar-2016	  28	Red	o	1	1.1929	E	O	PMEJ	ZGOQ	bbb	rrr	3	2000	1	6	0
21	04-Mar-2016	  29	Red	j	1	2.0508	K	J	KFDN	JGMU	b	r	1	650	1	6	0
21	04-Mar-2016	  30	Red	f	0	1.1288	N	W	FKNC	GMWE	rbb	brr	3	2000	1	6	0
21	04-Mar-2016	  31	Red	j	0	2.1578	T	Y	CXTB	JGYV	brr	rbb	3	650	1	6	0
21	04-Mar-2016	  32	Red	g	0	1.9818	X	W	XTZA	WUKO	r	b	1	2000	1	6	0
22	04-Mar-2016	   1	Red	y	0	0.4542	N	Y	FONW	UTYE	brr	rbb	3	2000	1	6	0
22	04-Mar-2016	   2	Red	d	1	0.8745	J	D	WJVO	LDBI	rb	br	2	2000	1	6	0
22	04-Mar-2016	   3	Red	o	0	0.7848	D	R	ZYBD	OFSR	brbb	rbrr	4	650	1	6	0
22	04-Mar-2016	   4	Red	t	0	0.6036	L	S	UVHL	BITS	bbbb	rrrr	4	650	1	6	0
22	04-Mar-2016	   5	Red	y	1	1.0826	Y	X	YQTB	XRCF	r	b	1	650	1	6	0
22	04-Mar-2016	   6	Red	v	0	1.0881	J	K	HJEQ	VKBL	br	rb	2	650	1	6	0
22	04-Mar-2016	   7	Red	v	0	0.5719	B	V	BTSK	VEID	r	b	1	650	1	6	0
22	04-Mar-2016	   8	Red	x	1	0.6323	H	X	JZDH	QYKX	bbbb	rrrr	4	2000	1	6	0
22	04-Mar-2016	   9	Red	m	0	1.0788	B	M	FBSO	PMWL	br	rb	2	2000	1	6	0
22	04-Mar-2016	  10	Red	k	1	0.7323	S	K	SXMN	KPDI	b	r	1	2000	1	6	0
22	04-Mar-2016	  11	Red	b	0	0.8582	I	B	YKLI	EDCB	rbrr	brbb	4	650	1	6	0
22	04-Mar-2016	  12	Red	g	1	0.8238	W	G	NWVP	XGOB	rb	br	2	650	1	6	0
22	04-Mar-2016	  13	Red	j	0	0.9263	R	J	ARVF	BJSM	br	rb	2	2000	1	6	0
22	04-Mar-2016	  14	Red	r	0	0.7209	I	R	IHMQ	RFKN	r	b	1	2000	1	6	0
22	04-Mar-2016	  15	Red	q	1	0.8313	W	Q	NGWY	ETQL	rbb	brr	3	2000	1	6	0
22	04-Mar-2016	  16	Red	d	1	0.8739	J	D	CSKJ	NOAD	rrrb	bbbr	4	2000	1	6	0
22	04-Mar-2016	  17	Red	c	0	0.7342	B	C	BGSY	CVKD	r	b	1	650	1	6	0
22	04-Mar-2016	  18	Red	p	0	1.2674	T	A	VKZT	LXPA	rbrb	brbr	4	650	1	6	0
22	04-Mar-2016	  19	Red	k	1	0.8016	Z	K	ZMWI	KHRJ	b	r	1	2000	1	6	0
22	04-Mar-2016	  20	Red	g	1	0.7010	C	G	MEVC	KBYG	brbb	rbrr	4	2000	1	6	0
22	04-Mar-2016	  21	Red	z	1	0.5868	S	Z	NSWH	DZRO	bb	rr	2	2000	1	6	0
22	04-Mar-2016	  22	Red	g	0	0.7533	Y	Q	XYJD	GQEI	rr	bb	2	650	1	6	0
22	04-Mar-2016	  23	Red	k	0	0.8275	R	E	XFRG	KZED	brr	rbb	3	650	1	6	0
22	04-Mar-2016	  24	Red	c	0	1.0997	B	F	ISBV	CYFU	rrr	bbb	3	650	1	6	0
22	04-Mar-2016	  25	Red	i	1	0.3008	O	I	MQOD	XHIY	rrb	bbr	3	2000	1	6	0
22	04-Mar-2016	  26	Red	l	0	0.7265	Z	Q	JWZA	LKQI	rbb	brr	3	650	1	6	0
22	04-Mar-2016	  27	Red	y	0	2.1036	U	Y	UKSM	YBQD	r	b	1	650	1	6	0
22	04-Mar-2016	  28	Red	e	0	0.9704	I	L	COID	EHLR	rrb	bbr	3	650	1	6	0
22	04-Mar-2016	  29	Red	a	0	0.3528	D	I	HQMD	ATWI	rbbb	brrr	4	2000	1	6	0
22	04-Mar-2016	  30	Red	t	1	1.0648	K	T	KBLC	TADF	b	r	1	2000	1	6	0
22	04-Mar-2016	  31	Red	g	1	0.7852	D	G	NKDF	CZGQ	rrb	bbr	3	2000	1	6	0
22	04-Mar-2016	  32	Red	i	0	0.9381	L	R	NLHC	IRJQ	rb	br	2	650	1	6	0
22	04-Mar-2016	   1	Blue	s	0	1.8288	R	G	SRHO	MGPZ	bb	rr	2	650	1	6	0
22	04-Mar-2016	   2	Blue	y	0	0.9917	Y	H	YDOP	HUWR	r	b	1	2000	1	6	0
22	04-Mar-2016	   3	Blue	r	0	0.3547	H	X	RJHP	AQXI	bbb	rrr	3	2000	1	6	0
22	04-Mar-2016	   4	Blue	f	1	0.7391	F	U	FVPY	ULSA	b	r	1	2000	1	6	0
22	04-Mar-2016	   5	Blue	b	0	0.9032	M	V	ELBM	KNAV	rbrb	brbr	4	2000	1	6	0
22	04-Mar-2016	   6	Blue	j	1	0.9155	J	K	JYEU	KBOM	b	r	1	650	1	6	0
22	04-Mar-2016	   7	Blue	i	0	0.8559	P	V	NPET	IVXB	rb	br	2	2000	1	6	0
22	04-Mar-2016	   8	Blue	h	1	0.7815	N	H	NCKM	HXGV	r	b	1	2000	1	6	0
22	04-Mar-2016	   9	Blue	e	1	0.3978	E	M	EYJU	MXBW	b	r	1	2000	1	6	0
22	04-Mar-2016	  10	Blue	u	0	0.7637	N	P	XNTB	UPEQ	rb	br	2	2000	1	6	0
22	04-Mar-2016	  11	Blue	t	1	0.5909	T	O	KDBT	ACXO	rbbb	brrr	4	650	1	6	0
22	04-Mar-2016	  12	Blue	z	0	1.6769	Y	Z	YSFW	ZBLO	b	r	1	650	1	6	0
22	04-Mar-2016	  13	Blue	x	1	0.8206	Y	X	YLUG	XQKM	r	b	1	650	1	6	0
22	04-Mar-2016	  14	Blue	f	0	0.6327	W	L	BACW	YKFL	bbrr	rrbb	4	2000	1	6	0
22	04-Mar-2016	  15	Blue	g	0	0.8885	L	T	VUEL	SGRT	rrrr	bbbb	4	650	1	6	0
22	04-Mar-2016	  16	Blue	c	1	0.7506	C	B	ZVCQ	TDBH	rrb	bbr	3	650	1	6	0
22	04-Mar-2016	  17	Blue	b	1	0.6783	B	C	BVPU	CYXQ	b	r	1	650	1	6	0
22	04-Mar-2016	  18	Blue	m	1	0.5430	M	N	RUMT	EHNQ	brb	rbr	3	2000	1	6	0
22	04-Mar-2016	  19	Blue	c	1	1.1037	Q	C	BQSG	KCIM	br	rb	2	2000	1	6	0
22	04-Mar-2016	  20	Blue	a	0	0.7260	U	A	ICUH	RXAK	rrb	bbr	3	2000	1	6	0
22	04-Mar-2016	  21	Blue	z	0	0.6025	K	S	CGIK	ZEMS	rbbr	brrb	4	650	1	6	0
22	04-Mar-2016	  22	Blue	s	1	0.5915	S	P	IUOS	LKZP	brrb	rbbr	4	2000	1	6	0
22	04-Mar-2016	  23	Blue	n	1	1.0158	N	X	PLNW	FQXI	rbb	brr	3	2000	1	6	0
22	04-Mar-2016	  24	Blue	f	0	0.7617	A	M	FPAN	CBML	bbb	rrr	3	650	1	6	0
22	04-Mar-2016	  25	Blue	a	0	0.6978	I	M	XILD	WMEA	bb	rr	2	650	1	6	0
22	04-Mar-2016	  26	Blue	c	0	0.7608	W	J	OEAW	CLVJ	rbbr	brrb	4	650	1	6	0
22	04-Mar-2016	  27	Blue	b	0	0.8909	N	I	BNDK	TISM	bb	rr	2	2000	1	6	0
22	04-Mar-2016	  28	Blue	p	1	0.8078	N	P	SXNL	EVPQ	rrr	bbb	3	650	1	6	0
22	04-Mar-2016	  29	Blue	f	0	0.4479	Y	E	TJYX	FIEP	rrb	bbr	3	650	1	6	0
22	04-Mar-2016	  30	Blue	g	0	0.8815	I	W	JTGI	VQFW	rrbr	bbrb	4	2000	1	6	0
22	04-Mar-2016	  31	Blue	w	0	2.1568	I	K	EISP	OKYZ	bb	rr	2	650	1	6	0
22	04-Mar-2016	  32	Blue	v	1	0.8449	V	D	XVRM	PDGI	rb	br	2	650	1	6	0
22	04-Mar-2016	   1	Red	l	0	1.1147	Z	I	LZUF	BIQP	rr	bb	2	650	1	6	0
22	04-Mar-2016	   2	Red	b	0	1.1192	B	N	BKLO	NDHU	b	r	1	2000	1	6	0
22	04-Mar-2016	   3	Red	g	0	0.7146	N	R	VNKZ	GRLB	br	rb	2	650	1	6	0
22	04-Mar-2016	   4	Red	t	0	1.1426	R	J	NFRE	BUJQ	rbb	brr	3	650	1	6	0
22	04-Mar-2016	   5	Red	c	0	0.5064	T	R	QTVZ	CRKP	br	rb	2	650	1	6	0
22	04-Mar-2016	   6	Red	w	0	0.3603	D	J	KIDS	WVJO	bbb	rrr	3	2000	1	6	0
22	04-Mar-2016	   7	Red	f	0	0.7755	Y	V	FDYM	AJVR	rbb	brr	3	650	1	6	0
22	04-Mar-2016	   8	Red	j	1	2.6635	N	J	NOLP	JYEI	b	r	1	650	1	6	0
22	04-Mar-2016	   9	Red	u	1	0.5565	C	U	CJGR	UVFT	b	r	1	2000	1	6	0
22	04-Mar-2016	  10	Red	u	0	0.6624	G	E	SQGO	UDEI	brb	rbr	3	650	1	6	0
22	04-Mar-2016	  11	Red	o	1	0.8786	S	O	IFSC	PJOA	brb	rbr	3	2000	1	6	0
22	04-Mar-2016	  12	Red	j	1	1.2170	J	U	JDTB	UXWN	r	b	1	650	1	6	0
22	04-Mar-2016	  13	Red	p	0	1.6740	S	E	SWPO	EAML	b	r	1	650	1	6	0
22	04-Mar-2016	  14	Red	z	0	0.8853	O	E	ZBQO	KVSE	rbbr	brrb	4	650	1	6	0
22	04-Mar-2016	  15	Red	u	1	0.3038	P	U	VCZP	RWYU	rbbb	brrr	4	2000	1	6	0
22	04-Mar-2016	  16	Red	s	1	0.4654	S	D	RSLV	KDHX	rr	bb	2	2000	1	6	0
22	04-Mar-2016	  17	Red	w	0	0.8688	J	N	JRCZ	NVGU	b	r	1	2000	1	6	0
22	04-Mar-2016	  18	Red	k	1	1.0431	K	W	EKXI	CWQP	rr	bb	2	2000	1	6	0
22	04-Mar-2016	  19	Red	n	1	0.8251	Y	N	YVMO	NXIQ	b	r	1	2000	1	6	0
22	04-Mar-2016	  20	Red	f	1	0.5575	P	F	SLXP	HYRF	bbbb	rrrr	4	2000	1	6	0
22	04-Mar-2016	  21	Red	u	0	0.8203	I	A	UIVC	HAYT	rb	br	2	650	1	6	0
22	04-Mar-2016	  22	Red	c	0	1.0226	H	Y	MIUH	CKFY	bbrr	rrbb	4	650	1	6	0
22	04-Mar-2016	  23	Red	b	1	0.7766	D	B	IGDE	ANBR	rbb	brr	3	2000	1	6	0
22	04-Mar-2016	  24	Red	h	0	0.8028	M	L	ZJMU	XHLE	rbr	brb	3	2000	1	6	0
22	04-Mar-2016	  25	Red	y	0	0.4168	T	V	IKMT	YWXV	bbrr	rrbb	4	2000	1	6	0
22	04-Mar-2016	  26	Red	s	1	1.6052	S	F	ASZI	HFKV	rr	bb	2	2000	1	6	0
22	04-Mar-2016	  27	Red	l	1	0.7701	J	L	PJKD	ELZS	rb	br	2	2000	1	6	0
22	04-Mar-2016	  28	Red	n	0	1.0469	U	C	HYWU	XNQC	rbrr	brbb	4	2000	1	6	0
22	04-Mar-2016	  29	Red	j	0	0.4874	X	N	PEXD	JANH	brr	rbb	3	650	1	6	0
22	04-Mar-2016	  30	Red	w	0	0.7584	A	Z	PXDA	WVEZ	bbrb	rrbr	4	650	1	6	0
22	04-Mar-2016	  31	Red	h	0	0.8337	M	Q	VIFM	HCBQ	bbbr	rrrb	4	650	1	6	0
22	04-Mar-2016	  32	Red	z	1	0.8782	Y	Z	YLDK	ZOXB	b	r	1	650	1	6	0
22	04-Mar-2016	   1	Blue	c	0	0.3408	O	I	HUGO	XWCI	brrb	rbbr	4	2000	1	6	0
22	04-Mar-2016	   2	Blue	q	0	0.8072	N	D	RWCN	PJQD	bbrb	rrbr	4	2000	1	6	0
22	04-Mar-2016	   3	Blue	t	0	0.8405	Q	Y	CQIH	TYKG	rb	br	2	2000	1	6	0
22	04-Mar-2016	   4	Blue	r	1	0.7212	R	K	MERC	BVKH	brb	rbr	3	2000	1	6	0
22	04-Mar-2016	   5	Blue	i	1	1.0438	H	I	HRDZ	IXTY	r	b	1	2000	1	6	0
22	04-Mar-2016	   6	Blue	f	1	0.8775	P	F	MSPT	RIFN	rbr	brb	3	2000	1	6	0
22	04-Mar-2016	   7	Blue	u	1	1.0567	F	U	FDLQ	UZJG	r	b	1	650	1	6	0
22	04-Mar-2016	   8	Blue	g	0	1.0065	D	J	WDQU	GJLY	rr	bb	2	650	1	6	0
22	04-Mar-2016	   9	Blue	t	0	0.8814	G	J	NXGA	TPJL	rbb	brr	3	650	1	6	0
22	04-Mar-2016	  10	Blue	f	0	0.8633	E	X	FWEN	LUXB	bbb	rrr	3	650	1	6	0
22	04-Mar-2016	  11	Blue	a	1	0.8127	C	A	CTSU	AJLH	r	b	1	2000	1	6	0
22	04-Mar-2016	  12	Blue	f	0	1.0472	K	V	ONDK	JZFV	rrrr	bbbb	4	2000	1	6	0
22	04-Mar-2016	  13	Blue	p	0	0.8975	H	E	ZCNH	XPYE	rrrb	bbbr	4	650	1	6	0
22	04-Mar-2016	  14	Blue	c	1	0.6932	C	Z	ECLF	QZGV	bb	rr	2	650	1	6	0
22	04-Mar-2016	  15	Blue	y	0	0.9080	M	P	GDMS	YCPW	rbb	brr	3	2000	1	6	0
22	04-Mar-2016	  16	Blue	g	0	1.0103	N	W	ERGN	XBJW	bbbb	rrrr	4	650	1	6	0
22	04-Mar-2016	  17	Blue	c	1	2.6339	Q	C	QFZB	CGUI	r	b	1	2000	1	6	0
22	04-Mar-2016	  18	Blue	e	0	2.3978	Y	I	EFCY	XMOI	brrb	rbbr	4	2000	1	6	0
22	04-Mar-2016	  19	Blue	b	0	5.2155	F	V	SAFO	NRVT	rrb	bbr	3	2000	1	6	0
22	04-Mar-2016	  20	Blue	m	0	0.9163	H	L	NHWR	MLGO	rr	bb	2	650	1	6	0
22	04-Mar-2016	  21	Blue	k	0	1.1043	W	J	WFXO	JVPY	b	r	1	650	1	6	0
22	04-Mar-2016	  22	Blue	s	1	1.0122	S	O	SHJP	OKQN	b	r	1	650	1	6	0
22	04-Mar-2016	  23	Blue	m	0	1.2211	P	H	WFPL	MAHR	bbb	rrr	3	650	1	6	0
22	04-Mar-2016	  24	Blue	s	1	0.7190	S	C	VSJF	UCEM	bb	rr	2	2000	1	6	0
22	04-Mar-2016	  25	Blue	i	1	1.1167	I	W	HNOI	MAYW	rrbb	bbrr	4	650	1	6	0
22	04-Mar-2016	  26	Blue	w	0	1.5231	Z	P	EROZ	VHAP	rbbb	brrr	4	650	1	6	0
22	04-Mar-2016	  27	Blue	a	0	1.7871	B	X	ABYU	IXRQ	br	rb	2	650	1	6	0
22	04-Mar-2016	  28	Blue	m	0	2.4620	B	Q	BTFO	QLVZ	r	b	1	2000	1	6	0
22	04-Mar-2016	  29	Blue	s	0	0.5570	E	L	SENO	CLWY	bb	rr	2	2000	1	6	0
22	04-Mar-2016	  30	Blue	g	0	0.6780	A	W	ZLAO	GSWV	rbr	brb	3	650	1	6	0
22	04-Mar-2016	  31	Blue	h	1	1.2242	H	K	HCQJ	KLRY	b	r	1	650	1	6	0
22	04-Mar-2016	  32	Blue	g	0	1.7552	K	V	OKPM	GVFE	rr	bb	2	2000	1	6	0
22	04-Mar-2016	   1	Red	p	0	1.1481	L	P	nL	nP	br	rb	2	650	1	6	1
22	04-Mar-2016	   2	Red	t	1	0.7127	I	T	nnnI	nnnT	rbrb	brbr	4	650	1	6	1
22	04-Mar-2016	   3	Red	m	1	0.8197	L	M	nL	nM	rb	br	2	650	1	6	1
22	04-Mar-2016	   4	Red	n	1	1.0416	X	N	X	N	b	r	1	650	1	6	1
22	04-Mar-2016	   5	Red	q	0	0.7307	W	D	nW	nD	rr	bb	2	2000	1	6	1
22	04-Mar-2016	   6	Red	z	0	0.7773	R	Z	nnnR	nnnZ	rrrr	bbbb	4	2000	1	6	1
22	04-Mar-2016	   7	Red	u	1	1.0567	U	V	U	V	r	b	1	2000	1	6	1
22	04-Mar-2016	   8	Red	a	1	0.8336	H	A	nnH	nnA	bbb	rrr	3	2000	1	6	1
22	04-Mar-2016	   9	Red	o	0	1.7516	T	C	nT	nC	bb	rr	2	650	1	6	1
22	04-Mar-2016	  10	Red	h	0	14.7582	Y	X	Y	X	b	r	1	650	1	6	1
22	04-Mar-2016	  11	Red	s	1	0.9186	M	S	nnM	nnS	bbb	rrr	3	650	1	6	1
22	04-Mar-2016	  12	Red	w	1	0.7958	W	D	nnW	nnD	rrr	bbb	3	650	1	6	1
22	04-Mar-2016	  13	Red	v	0	1.3335	D	O	nnD	nnO	brr	rbb	3	650	1	6	1
22	04-Mar-2016	  14	Red	i	1	0.7316	I	P	nI	nP	rr	bb	2	2000	1	6	1
22	04-Mar-2016	  15	Red	c	1	1.1368	Q	C	nnnQ	nnnC	rrbb	bbrr	4	2000	1	6	1
22	04-Mar-2016	  16	Red	p	1	1.1409	P	K	P	K	r	b	1	2000	1	6	1
22	04-Mar-2016	  17	Red	f	1	0.3147	S	F	nnS	nnF	brb	rbr	3	2000	1	6	1
22	04-Mar-2016	  18	Red	n	1	0.7790	A	N	A	N	b	r	1	650	1	6	1
22	04-Mar-2016	  19	Red	y	0	0.7390	L	Y	L	Y	r	b	1	2000	1	6	1
22	04-Mar-2016	  20	Red	v	1	0.9972	V	A	nV	nA	rr	bb	2	2000	1	6	1
22	04-Mar-2016	  21	Red	n	1	0.4481	W	N	nnW	nnN	brb	rbr	3	2000	1	6	1
22	04-Mar-2016	  22	Red	e	1	0.7668	E	Q	nnnE	nnnQ	rrrr	bbbb	4	650	1	6	1
22	04-Mar-2016	  23	Red	z	1	0.8130	Z	O	nnnZ	nnnO	brbr	rbrb	4	2000	1	6	1
22	04-Mar-2016	  24	Red	q	1	0.8450	Q	E	nnQ	nnE	brr	rbb	3	650	1	6	1
22	04-Mar-2016	  25	Red	j	1	0.6903	Z	J	Z	J	b	r	1	2000	1	6	1
22	04-Mar-2016	  26	Red	y	1	0.7827	Y	S	nY	nS	rr	bb	2	2000	1	6	1
22	04-Mar-2016	  27	Red	r	1	0.9294	R	V	nnnR	nnnV	rbrr	brbb	4	650	1	6	1
22	04-Mar-2016	  28	Red	t	1	1.7478	Z	T	Z	T	b	r	1	650	1	6	1
22	04-Mar-2016	  29	Red	n	1	1.1965	N	X	nnN	nnX	rbr	brb	3	2000	1	6	1
22	04-Mar-2016	  30	Red	m	1	1.5245	U	M	nnnU	nnnM	rrrb	bbbr	4	2000	1	6	1
22	04-Mar-2016	  31	Red	o	0	2.1806	Y	X	nnnY	nnnX	rrbr	bbrb	4	650	1	6	1
22	04-Mar-2016	  32	Red	p	0	1.1644	T	K	nT	nK	rb	br	2	650	1	6	1
22	04-Mar-2016	   1	Blue	g	1	0.3774	E	G	nnnE	nnnG	bbbr	rrrb	4	2000	1	6	1
22	04-Mar-2016	   2	Blue	h	1	0.7301	O	H	nnO	nnH	bbr	rrb	3	2000	1	6	1
22	04-Mar-2016	   3	Blue	x	1	0.8459	X	T	nX	nT	bb	rr	2	2000	1	6	1
22	04-Mar-2016	   4	Blue	q	1	0.7497	Q	G	nnnQ	nnnG	bbbb	rrrr	4	650	1	6	1
22	04-Mar-2016	   5	Blue	g	1	0.9465	G	U	nnnG	nnnU	rbbb	brrr	4	650	1	6	1
22	04-Mar-2016	   6	Blue	l	0	1.0227	T	Y	nnnT	nnnY	rbrb	brbr	4	650	1	6	1
22	04-Mar-2016	   7	Blue	m	1	1.4362	U	M	nnnU	nnnM	brbr	rbrb	4	2000	1	6	1
22	04-Mar-2016	   8	Blue	b	0	1.6133	I	Q	I	Q	r	b	1	2000	1	6	1
22	04-Mar-2016	   9	Blue	k	0	1.0016	J	S	nnJ	nnS	rbr	brb	3	650	1	6	1
22	04-Mar-2016	  10	Blue	j	0	1.5839	H	J	H	J	b	r	1	650	1	6	1
22	04-Mar-2016	  11	Blue	y	0	2.0851	S	E	nS	nE	bb	rr	2	650	1	6	1
22	04-Mar-2016	  12	Blue	r	0	0.6240	V	P	nV	nP	br	rb	2	2000	1	6	1
22	04-Mar-2016	  13	Blue	p	0	3.0222	V	M	nV	nM	br	rb	2	650	1	6	1
22	04-Mar-2016	  14	Blue	p	1	0.3068	P	N	nnP	nnN	brb	rbr	3	2000	1	6	1
22	04-Mar-2016	  15	Blue	c	1	0.9847	C	I	nnnC	nnnI	rrrb	bbbr	4	2000	1	6	1
22	04-Mar-2016	  16	Blue	r	0	2.9719	U	L	nnU	nnL	brr	rbb	3	650	1	6	1
22	04-Mar-2016	  17	Blue	w	0	2.7069	M	K	nnnM	nnnK	bbrr	rrbb	4	2000	1	6	1
22	04-Mar-2016	  18	Blue	k	0	2.4581	H	X	nH	nX	rb	br	2	2000	1	6	1
22	04-Mar-2016	  19	Blue	y	0	0.8181	M	J	nnM	nnJ	bbr	rrb	3	2000	1	6	1
22	04-Mar-2016	  20	Blue	z	0	1.0730	J	T	J	T	b	r	1	2000	1	6	1
22	04-Mar-2016	  21	Blue	m	0	5.5454	N	Q	nnN	nnQ	rbb	brr	3	2000	1	6	1
22	04-Mar-2016	  22	Blue	z	1	1.6584	V	Z	V	Z	r	b	1	650	1	6	1
22	04-Mar-2016	  23	Blue	p	0	10.7015	W	F	nnW	nnF	brb	rbr	3	650	1	6	1
22	04-Mar-2016	  24	Blue	n	0	4.0677	M	Y	nnM	nnY	brb	rbr	3	650	1	6	1
22	04-Mar-2016	  25	Blue	o	0	3.7148	L	U	nL	nU	br	rb	2	650	1	6	1
22	04-Mar-2016	  26	Blue	u	0	2.7225	Q	U	Q	U	b	r	1	2000	1	6	1
22	04-Mar-2016	  27	Blue	l	0	6.7515	C	Z	nC	nZ	bb	rr	2	650	1	6	1
22	04-Mar-2016	  28	Blue	t	0	12.0648	X	O	nX	nO	rr	bb	2	2000	1	6	1
22	04-Mar-2016	  29	Blue	p	0	6.2046	L	U	L	U	b	r	1	650	1	6	1
22	04-Mar-2016	  30	Blue	h	1	0.8429	E	H	nnnE	nnnH	rbbr	brrb	4	650	1	6	1
22	04-Mar-2016	  31	Blue	m	0	11.4720	B	P	B	P	b	r	1	650	1	6	1
22	04-Mar-2016	  32	Blue	f	0	8.6332	D	V	D	V	b	r	1	2000	1	6	1
22	04-Mar-2016	   1	Red	r	0	0.3288	Y	N	nnnY	nnnN	bbbr	rrrb	4	2000	1	6	1
22	04-Mar-2016	   2	Red	w	1	1.1106	W	V	nnnW	nnnV	bbbr	rrrb	4	2000	1	6	1
22	04-Mar-2016	   3	Red	u	1	0.9096	P	U	nnnP	nnnU	rbbb	brrr	4	650	1	6	1
22	04-Mar-2016	   4	Red	b	1	1.5914	K	B	K	B	b	r	1	650	1	6	1
22	04-Mar-2016	   5	Red	k	1	0.7115	W	K	nnnW	nnnK	rbrb	brbr	4	650	1	6	1
22	04-Mar-2016	   6	Red	y	1	0.7872	F	Y	nnF	nnY	bbb	rrr	3	650	1	6	1
22	04-Mar-2016	   7	Red	m	0	0.9242	O	U	nnO	nnU	rbr	brb	3	650	1	6	1
22	04-Mar-2016	   8	Red	e	1	0.4078	P	E	nP	nE	bb	rr	2	2000	1	6	1
22	04-Mar-2016	   9	Red	s	1	0.5746	D	S	nnD	nnS	brb	rbr	3	650	1	6	1
